time,seconds_elapsed,z,y,x
1687499575057642500,0.122642578125,-0.9430035948753357,0.04003143310546875,0.5345579385757446
1687499575067531500,0.132531494140625,-0.8208003044128418,-0.13359451293945312,0.6492708325386047
1687499575077458400,0.14245849609375,-0.5905959606170654,-0.039493560791015625,0.31198734045028687
1687499575087427000,0.152427001953125,-0.4341987371444702,0.10431480407714844,0.12098956108093262
1687499575097438700,0.162438720703125,-0.19208121299743652,0.14130592346191406,0.14716178178787231
1687499575107494000,0.172493896484375,-0.0006072521209716797,-0.10780525207519531,0.09764409065246582
1687499575117590800,0.1825908203125,0.007056474685668945,-0.1439657211303711,0.3009718656539917
1687499575127725800,0.192725830078125,0.06637370586395264,-0.030098915100097656,0.3495132327079773
1687499575137894400,0.202894287109375,0.11148929595947266,0.027688980102539062,0.19940495491027832
1687499575148090600,0.213090576171875,0.12556850910186768,0.04212474822998047,-0.009244859218597412
1687499575158290700,0.223290771484375,0.11955380439758301,0.20172977447509766,-0.19869157671928406
1687499575168490800,0.23349072265625,0.23635411262512207,0.25905609130859375,-0.49601462483406067
1687499575178690600,0.243690673828125,0.3296217918395996,0.1829214096069336,-0.7639598846435547
1687499575188890600,0.253890625,0.47098302841186523,0.16156959533691406,-0.8979133367538452
1687499575199030300,0.2640302734375,0.6290488243103027,0.15985393524169922,-0.9144449830055237
1687499575209085400,0.27408544921875,0.7730965614318848,0.2314434051513672,-1.0300873517990112
1687499575219140400,0.284140380859375,0.8963770866394043,0.2765159606933594,-1.0876914262771606
1687499575229195300,0.2941953125,0.9918837547302246,0.1391763687133789,-0.9606998562812805
1687499575239250400,0.30425048828125,0.9270510673522949,0.12065505981445312,-0.7700016498565674
1687499575249305300,0.314305419921875,0.812685489654541,0.13358020782470703,-0.46994179487228394
1687499575259360300,0.3243603515625,0.6621649265289307,0.1125650405883789,-0.2323974072933197
1687499575269415400,0.33441552734375,0.5910036563873291,0.07278919219970703,-0.16473959386348724
1687499575279470300,0.34447021484375,0.6053061485290527,0.1677703857421875,-0.27493131160736084
1687499575289525200,0.354525146484375,0.7675294876098633,0.3052692413330078,-0.36850449442863464
1687499575299580400,0.364580322265625,0.8896605968475342,0.29796314239501953,-0.4697067439556122
1687499575309635300,0.37463525390625,0.9205703735351562,0.12592792510986328,-0.4290388822555542
1687499575319690500,0.3846904296875,0.74642014503479,0.15176963806152344,-0.4367980360984802
1687499575329745400,0.394745361328125,0.5479869842529297,0.2401294708251953,-0.46448102593421936
1687499575339800300,0.40480029296875,0.36579394340515137,0.2594871520996094,-0.5042370557785034
1687499575349855500,0.41485546875,0.24831843376159668,0.3382291793823242,-0.536514163017273
1687499575359910400,0.424910400390625,0.1846141815185547,0.32088661193847656,-0.5309445858001709
1687499575369965300,0.43496533203125,-0.5391969680786133,-0.04778575897216797,-0.40539786219596863
1687499575380020500,0.4450205078125,-1.7561429738998413,-0.23792648315429688,-0.4281395971775055
1687499575390075400,0.455075439453125,-2.2370312213897705,0.0948343276977539,-0.5266005992889404
1687499575400130300,0.46513037109375,-2.215353012084961,0.4569578170776367,-0.6968003511428833
1687499575410185500,0.475185546875,-1.7840410470962524,0.374664306640625,-0.63724684715271
1687499575420240400,0.485240478515625,-1.2957252264022827,0.06210899353027344,-0.27874428033828735
1687499575430295300,0.49529541015625,-0.8791590929031372,-0.02796649932861328,-0.020612657070159912
1687499575440350500,0.5053505859375,-0.6472921371459961,0.06624412536621094,0.16610056161880493
1687499575450405400,0.5154052734375,-0.6079419851303101,0.05543327331542969,0.6112648248672485
1687499575460460300,0.525460205078125,-0.39042186737060547,-0.015215873718261719,0.9688809514045715
1687499575470515500,0.535515380859375,0.11877560615539551,0.014156341552734375,1.2498880624771118
1687499575480570400,0.5455703125,0.442610502243042,0.07434844970703125,1.0700805187225342
1687499575490625300,0.555625244140625,0.5822632312774658,0.028089523315429688,0.5746307969093323
1687499575500680400,0.565680419921875,0.4944937229156494,-0.04756450653076172,-0.13838759064674377
1687499575510735400,0.5757353515625,0.25166893005371094,0.0034894943237304688,-0.7353496551513672
1687499575520790300,0.585790283203125,0.035480499267578125,0.03423309326171875,-0.8214487433433533
1687499575530845400,0.595845458984375,-0.0593717098236084,0.008188247680664062,-0.6070638298988342
1687499575540900400,0.605900390625,-0.1456601619720459,0.11967945098876953,-0.2299923598766327
1687499575550955500,0.61595556640625,-0.11137473583221436,0.48412513732910156,0.5510245561599731
1687499575561010400,0.626010498046875,-0.19089102745056152,0.16566944122314453,0.7438560128211975
1687499575571065600,0.636065673828125,-0.021515250205993652,0.13164329528808594,0.5024755001068115
1687499575581120500,0.64612060546875,0.1850186586380005,0.29647254943847656,0.1319393366575241
1687499575591175700,0.65617578125,0.3429696559906006,0.43480968475341797,-0.1937423050403595
1687499575601230800,0.66623095703125,0.2523517608642578,0.45730113983154297,-0.41121166944503784
1687499575611285800,0.67628564453125,0.06646811962127686,0.4037961959838867,-0.4491114914417267
1687499575621341000,0.6863408203125,-0.2383784055709839,0.3700389862060547,-0.5041123628616333
1687499575631395800,0.696395751953125,-0.3854748010635376,0.3846302032470703,-0.47804129123687744
1687499575641451000,0.706450927734375,-0.3354916572570801,0.3054523468017578,-0.3383013904094696
1687499575651506000,0.716505859375,-0.20319175720214844,0.23264122009277344,-0.21230310201644897
1687499575661561000,0.72656103515625,-0.10112118721008301,0.15626811981201172,-0.027418866753578186
1687499575671616000,0.736615966796875,-0.014651179313659668,0.06215953826904297,0.18891045451164246
1687499575681671200,0.746671142578125,0.1182096004486084,0.030658721923828125,0.36313682794570923
1687499575691726300,0.756726318359375,0.21392476558685303,0.008533477783203125,0.3463907837867737
1687499575701781200,0.76678125,0.12718820571899414,-0.018632888793945312,0.3210304081439972
1687499575711836400,0.77683642578125,-0.11292719841003418,-0.02212238311767578,0.21096226572990417
1687499575721891300,0.786891357421875,-0.36088991165161133,0.05497264862060547,0.030360490083694458
1687499575731946500,0.796946533203125,-0.42023754119873047,0.08914661407470703,-0.07067987322807312
1687499575742001400,0.80700146484375,-0.3029508590698242,0.043178558349609375,-0.1605038046836853
1687499575752056600,0.817056640625,-0.10394895076751709,-0.01604175567626953,-0.27313998341560364
1687499575762111500,0.827111572265625,0.036011457443237305,-0.00832366943359375,-0.33308517932891846
1687499575772166700,0.837166748046875,0.09977257251739502,0.051148414611816406,-0.3548573851585388
1687499575782221600,0.8472216796875,0.08787310123443604,0.06249237060546875,-0.3286258578300476
1687499575792276700,0.85727685546875,0.0240786075592041,0.026436805725097656,-0.3974188566207886
1687499575802332000,0.867331787109375,0.016689300537109375,0.0667409896850586,-0.4479988217353821
1687499575812386800,0.87738671875,0.046022653579711914,0.08316612243652344,-0.44366276264190674
1687499575822442000,0.88744189453125,0.1070699691772461,0.07598114013671875,-0.5232937932014465
1687499575832497000,0.897496826171875,0.34237873554229736,0.04532814025878906,-0.6018319129943848
1687499575842552000,0.907552001953125,0.5533866882324219,-0.013583183288574219,-0.5242490768432617
1687499575852607000,0.91760693359375,0.5716966390609741,-0.053356170654296875,-0.3725431263446808
1687499575862662100,0.927662109375,0.48400819301605225,-0.050426483154296875,-0.2077840268611908
1687499575872717000,0.937717041015625,0.4079388380050659,0.009218215942382812,-0.05155909061431885
1687499575882772200,0.947772216796875,0.3618276119232178,0.006617546081542969,0.07003524899482727
1687499575892827100,0.9578271484375,0.2650822401046753,-0.024480819702148438,0.15001651644706726
1687499575902882300,0.96788232421875,0.05513286590576172,-0.05490398406982422,0.24112087488174438
1687499575912937500,0.9779375,-0.12095940113067627,-0.03743171691894531,0.19431549310684204
1687499575922992400,0.987992431640625,-0.17020416259765625,-0.0057353973388671875,0.10503754019737244
1687499575933047600,0.998047607421875,-0.14051663875579834,-0.021419525146484375,-0.004075199365615845
1687499575943102500,1.0081025390625,-0.14050495624542236,-0.017876625061035156,-0.08721835911273956
1687499575953157600,1.01815771484375,-0.12291276454925537,0.04702281951904297,-0.24016480147838593
1687499575963212500,1.028212646484375,-0.002714991569519043,0.10159492492675781,-0.4493246078491211
1687499575973267700,1.038267822265625,0.11654222011566162,0.11757373809814453,-0.550603985786438
1687499575983322600,1.048322509765625,0.1698998212814331,0.12848949432373047,-0.5191354751586914
1687499575993377800,1.058377685546875,0.20583713054656982,0.16268444061279297,-0.43306997418403625
1687499576003432700,1.0684326171875,0.2345120906829834,0.2056131362915039,-0.2881947457790375
1687499576013487900,1.07848779296875,0.23344862461090088,0.2946586608886719,-0.10210415720939636
1687499576023543000,1.08854296875,0.19887125492095947,0.4195289611816406,0.028519034385681152
1687499576033598000,1.098597900390625,0.17380547523498535,0.5748834609985352,0.08743834495544434
1687499576043653000,1.108653076171875,0.2761913537979126,0.7507905960083008,0.3063699007034302
1687499576053708000,1.1187080078125,0.44105327129364014,0.8384256362915039,0.6990319490432739
1687499576063763200,1.12876318359375,0.5727369785308838,0.9237804412841797,1.1898324489593506
1687499576073818000,1.138818115234375,0.590182900428772,1.0821456909179688,1.9186097383499146
1687499576083873300,1.148873291015625,0.6767779588699341,1.3652677536010742,3.0013234615325928
1687499576093928200,1.15892822265625,1.2300000190734863,1.7968006134033203,4.637601852416992
1687499576103983400,1.1689833984375,1.792163610458374,2.1659011840820312,6.848923683166504
1687499576114038300,1.179038330078125,1.9600269794464111,2.334811210632324,8.99739933013916
1687499576124093400,1.189093505859375,1.5718425512313843,2.4336929321289062,12.22371768951416
1687499576134148600,1.199148681640625,0.8258631229400635,2.046128273010254,16.420318603515625
1687499576144203500,1.20920361328125,-0.6371198296546936,0.6315059661865234,21.60820770263672
1687499576154258700,1.2192587890625,-2.9691100120544434,-1.7172966003417969,28.406389236450195
1687499576164313600,1.229313720703125,-5.740074634552002,-5.3810577392578125,33.76219177246094
1687499576174368800,1.23936865234375,-8.962688446044922,-10.500689506530762,36.08913803100586
1687499576184423700,1.249423583984375,-12.220062255859375,-16.706348419189453,36.01405715942383
1687499576194478800,1.259478759765625,-15.349437713623047,-22.92277717590332,35.32606506347656
1687499576204533800,1.26953369140625,-20.845561981201172,-29.850627899169922,30.607248306274414
1687499576214589000,1.2795888671875,-21.337406158447266,-35.53325653076172,21.92658233642578
1687499576224644000,1.28964404296875,-13.06220817565918,-42.53017807006836,15.759588241577148
1687499576234699000,1.299698974609375,-0.7698842287063599,-46.25897979736328,5.225028038024902
1687499576244754200,1.309754150390625,16.735265731811523,-45.324520111083984,-9.797046661376953
1687499576254809000,1.31980908203125,34.514373779296875,-41.492698669433594,-25.941329956054688
1687499576264864300,1.3298642578125,37.674163818359375,-34.97929000854492,-37.61348342895508
1687499576274919200,1.339919189453125,26.60032081604004,-24.98249626159668,-47.42348098754883
1687499576284974300,1.349974365234375,12.976902961730957,-20.055679321289062,-51.32759475708008
1687499576295029200,1.360029296875,2.0238187313079834,-20.701148986816406,-47.33434295654297
1687499576305084400,1.37008447265625,-6.329593658447266,-20.884241104125977,-40.332008361816406
1687499576315139600,1.3801396484375,-10.766263008117676,-20.490528106689453,-32.93885803222656
1687499576325194500,1.390194580078125,-9.907238006591797,-21.32555389404297,-24.307201385498047
1687499576335249700,1.400249755859375,-6.617317199707031,-22.17997932434082,-16.86418914794922
1687499576345304600,1.4103046875,-4.022342681884766,-22.75688934326172,-11.60293960571289
1687499576355359700,1.42035986328125,-2.3011250495910645,-23.289148330688477,-7.20355224609375
1687499576365414700,1.43041455078125,-1.522614598274231,-23.47201156616211,-3.3586606979370117
1687499576375469800,1.4404697265625,-1.492940902709961,-22.961410522460938,0.18038368225097656
1687499576385524700,1.450524658203125,-1.4583728313446045,-22.17105484008789,2.8466529846191406
1687499576395580000,1.460579833984375,-1.4408560991287231,-21.427288055419922,4.474276065826416
1687499576405634800,1.470634765625,-1.3358410596847534,-20.399776458740234,5.219137668609619
1687499576415690000,1.48068994140625,-1.1084892749786377,-19.50855255126953,5.992626190185547
1687499576425745200,1.4907451171875,-1.0336451530456543,-18.624500274658203,7.1547651290893555
1687499576435800000,1.500800048828125,-0.45543283224105835,-16.855188369750977,9.027481079101562
1687499576445855200,1.510855224609375,0.8052319884300232,-14.654747009277344,10.446023941040039
1687499576455910100,1.52091015625,0.4461401402950287,-12.039164543151855,12.32811164855957
1687499576465965300,1.53096533203125,3.2251079082489014,-9.814189910888672,13.555134773254395
1687499576476020200,1.541020263671875,5.232553482055664,-8.188056945800781,14.778861999511719
1687499576486075400,1.551075439453125,7.291133403778076,-5.891786575317383,14.65075969696045
1687499576496130300,1.56113037109375,8.13823127746582,-3.9260940551757812,13.4588623046875
1687499576506185500,1.571185546875,7.810240745544434,-2.4974818229675293,11.729351043701172
1687499576516240400,1.581240478515625,7.088234901428223,-1.0083999633789062,10.931831359863281
1687499576526295600,1.591295654296875,6.289359092712402,0.37453556060791016,10.359048843383789
1687499576536350700,1.601350830078125,5.158700942993164,0.9138631820678711,9.257672309875488
1687499576546405600,1.611405517578125,3.993622303009033,1.0308780670166016,8.882136344909668
1687499576556460800,1.621460693359375,3.058723211288452,1.1586360931396484,8.99878215789795
1687499576566515700,1.631515625,2.236626625061035,0.9510507583618164,8.506586074829102
1687499576576571000,1.64157080078125,1.3679447174072266,0.5206232070922852,7.313939094543457
1687499576586626000,1.6516259765625,0.5582892894744873,0.23089027404785156,5.928948402404785
1687499576596681200,1.66168115234375,-0.1099703311920166,0.10138416290283203,4.782171249389648
1687499576606736100,1.671736083984375,-0.5338519811630249,0.09725761413574219,3.71799898147583
1687499576616791300,1.681791259765625,-0.7557371854782104,-0.020483970642089844,2.487278699874878
1687499576626846500,1.691846435546875,-0.7158169746398926,-0.127471923828125,1.3091742992401123
1687499576636901600,1.701901611328125,-0.4560420513153076,-0.16868305206298828,0.841590404510498
1687499576646956500,1.71195654296875,-0.14382445812225342,-0.27888011932373047,0.9466762542724609
1687499576657011700,1.72201171875,0.1096351146697998,-0.5837802886962891,0.9923703670501709
1687499576667067000,1.73206689453125,0.16089510917663574,-0.8216562271118164,0.7714157104492188
1687499576677122000,1.7421220703125,0.16012859344482422,-0.7743654251098633,0.7386183738708496
1687499576687177000,1.752177001953125,0.036548733711242676,-0.7487382888793945,0.8376991748809814
1687499576697232100,1.762232177734375,-0.20010340213775635,-0.7248344421386719,0.6932246685028076
1687499576707287300,1.772287353515625,-0.3524465560913086,-0.6250762939453125,0.2597792148590088
1687499576717342500,1.782342529296875,-0.3287069797515869,-0.5483303070068359,-0.2352275848388672
1687499576727397400,1.7923974609375,-0.06663012504577637,-0.5790653228759766,-0.6266567707061768
1687499576737452500,1.80245263671875,0.12012732028961182,-0.759368896484375,-0.6502094268798828
1687499576747507700,1.8125078125,0.15457689762115479,-0.8223018646240234,-0.5461525917053223
1687499576757563000,1.82256298828125,0.13384675979614258,-0.8017721176147461,-0.7209643125534058
1687499576767617800,1.83261767578125,-0.004351377487182617,-0.787684440612793,-1.0058515071868896
1687499576777673000,1.8426728515625,-0.30429607629776,-0.7553386688232422,-1.1276960372924805
1687499576787728100,1.85272802734375,-0.5482249855995178,-0.6091775894165039,-1.1994327306747437
1687499576797783300,1.862783203125,-0.7279609441757202,-0.4688854217529297,-1.1799309253692627
1687499576807838200,1.872838134765625,-0.888927161693573,-0.46347713470458984,-1.0303268432617188
1687499576817893400,1.882893310546875,-0.9348936080932617,-0.45501041412353516,-0.7661149501800537
1687499576827948500,1.892948486328125,-0.7495712041854858,-0.4301481246948242,-0.5455576181411743
1687499576838003700,1.903003662109375,-0.42261257767677307,-0.4327840805053711,-0.2937588691711426
1687499576848058600,1.91305859375,-0.20669090747833252,-0.4778594970703125,-0.042436957359313965
1687499576858113800,1.92311376953125,-0.17875367403030396,-0.455841064453125,0.07015061378479004
1687499576868169000,1.9331689453125,-0.2605285942554474,-0.4430570602416992,0.15250039100646973
1687499576878224000,1.943223876953125,-0.3899599313735962,-0.48700523376464844,0.23770415782928467
1687499576888279000,1.953279052734375,-0.4918155074119568,-0.49178218841552734,0.10489523410797119
1687499576898334000,1.963333984375,-0.3617241084575653,-0.35242176055908203,0.12428581714630127
1687499576908389000,1.97338916015625,0.012094676494598389,-0.19371891021728516,0.3659322261810303
1687499576918444000,1.983444091796875,0.4575427174568176,-0.16403675079345703,0.682300329208374
1687499576928499200,1.993499267578125,0.8355484008789062,-0.15403175354003906,1.2343136072158813
1687499576938554400,2.003554443359375,1.4936059713363647,0.1069183349609375,2.3046016693115234
1687499576948609300,2.013609375,2.5446934700012207,0.4445934295654297,3.9377031326293945
1687499576958664400,2.02366455078125,3.893850326538086,0.7091846466064453,6.756175994873047
1687499576968719400,2.03371923828125,4.891117095947266,0.7037553787231445,10.800339698791504
1687499576978774500,2.0437744140625,5.368789196014404,0.3091602325439453,15.034466743469238
1687499576988829400,2.053829345703125,5.5314531326293945,-0.4182929992675781,18.785980224609375
1687499576998884600,2.063884521484375,5.509951591491699,-2.054534435272217,22.635196685791016
1687499577008939500,2.073939453125,4.891892910003662,-4.891906261444092,26.565555572509766
1687499577018994700,2.08399462890625,3.1758203506469727,-8.517138481140137,29.734161376953125
1687499577029049600,2.094049560546875,0.774280846118927,-12.53279972076416,31.526195526123047
1687499577039104800,2.104104736328125,-1.5413422584533691,-17.410327911376953,30.945003509521484
1687499577049160000,2.114159912109375,-2.985527992248535,-22.984844207763672,28.283933639526367
1687499577059214800,2.12421484375,-2.9004485607147217,-28.417158126831055,23.274967193603516
1687499577069270000,2.13427001953125,-0.41571855545043945,-32.742759704589844,15.466238021850586
1687499577079325000,2.144324951171875,4.045234680175781,-35.11695098876953,6.250151634216309
1687499577089380000,2.154380126953125,9.273836135864258,-36.114051818847656,-4.5836181640625
1687499577099435000,2.16443505859375,12.210241317749023,-36.10148239135742,-15.015076637268066
1687499577109490200,2.174490234375,10.016256332397461,-35.871219635009766,-25.406639099121094
1687499577119545000,2.184545166015625,1.626473307609558,-32.91977310180664,-38.34246826171875
1687499577129600300,2.194600341796875,-11.08553695678711,-28.35236930847168,-50.22030258178711
1687499577139655400,2.204655517578125,-25.567054748535156,-23.820457458496094,-57.35848617553711
1687499577149710300,2.21471044921875,-37.0565299987793,-22.409900665283203,-58.093685150146484
1687499577159765500,2.224765625,-37.901920318603516,-24.962337493896484,-52.35215759277344
1687499577169820400,2.2348203125,-27.131563186645508,-31.998266220092773,-44.1669807434082
1687499577179875600,2.24487548828125,-13.291513442993164,-39.87202835083008,-35.514892578125
1687499577189930500,2.254930419921875,-3.8192806243896484,-47.1386604309082,-25.54551124572754
1687499577199985700,2.264985595703125,0.5086233615875244,-52.70423889160156,-15.476521492004395
1687499577210040600,2.27504052734375,2.050177574157715,-55.82326126098633,-6.37508487701416
1687499577220095700,2.285095703125,2.053896427154541,-56.62427520751953,2.3043055534362793
1687499577230150700,2.295150634765625,1.7114746570587158,-55.96193313598633,10.685369491577148
1687499577240205800,2.305205810546875,0.7820988893508911,-53.094207763671875,18.959280014038086
1687499577250261000,2.315260986328125,0.9290211796760559,-45.63559341430664,25.282554626464844
1687499577260316000,2.32531591796875,4.371994972229004,-37.6107292175293,29.8206729888916
1687499577270371000,2.33537109375,11.394899368286133,-29.284202575683594,31.249786376953125
1687499577280426000,2.345426025390625,18.366863250732422,-20.476123809814453,30.63216209411621
1687499577290481200,2.355481201171875,22.278106689453125,-12.186662673950195,27.480016708374023
1687499577300536000,2.3655361328125,23.28854751586914,-5.84375,24.678024291992188
1687499577310591200,2.37559130859375,20.085369110107422,-2.293949604034424,23.32021141052246
1687499577320646100,2.385646240234375,13.382207870483398,-1.6097455024719238,22.562990188598633
1687499577330701300,2.395701416015625,6.630246639251709,-1.3039336204528809,21.390533447265625
1687499577340756200,2.405756103515625,1.960749626159668,-0.47429800033569336,18.79421615600586
1687499577350811400,2.415811279296875,-0.2048478126525879,0.12704849243164062,15.248004913330078
1687499577360866600,2.425866455078125,-0.42873191833496094,0.3345346450805664,11.53758430480957
1687499577370921500,2.43592138671875,0.34601449966430664,0.2670722007751465,8.157121658325195
1687499577380976600,2.4459765625,1.3071179389953613,0.19388389587402344,5.264729976654053
1687499577391031600,2.456031494140625,1.8954052925109863,0.32540321350097656,2.872772693634033
1687499577401086700,2.466086669921875,2.6165175437927246,0.3144197463989258,1.4630248546600342
1687499577411141600,2.4761416015625,3.083782196044922,0.0987558364868164,1.0726547241210938
1687499577421196800,2.48619677734375,2.638920783996582,-0.2792830467224121,1.144625186920166
1687499577431251700,2.496251708984375,1.7068829536437988,-0.42438364028930664,1.2822096347808838
1687499577441307000,2.506306884765625,0.8046073913574219,-0.42148733139038086,1.3350203037261963
1687499577451361800,2.51636181640625,0.022302865982055664,-0.3219432830810547,1.4247050285339355
1687499577461417000,2.5264169921875,-0.48024988174438477,-0.2666330337524414,1.6281213760375977
1687499577471472000,2.53647216796875,-0.45215392112731934,-0.30602455139160156,1.3679864406585693
1687499577481527000,2.546527099609375,-0.2526967525482178,-0.41310596466064453,0.41088032722473145
1687499577491582200,2.556582275390625,0.006163358688354492,-0.6128158569335938,-0.6781066656112671
1687499577501637000,2.56663720703125,0.22042131423950195,-0.7403411865234375,-1.956373691558838
1687499577511692300,2.5766923828125,0.27143073081970215,-0.7086982727050781,-3.1989595890045166
1687499577521747200,2.586747314453125,0.17491436004638672,-0.6039791107177734,-3.820219039916992
1687499577531802400,2.59680224609375,-0.13024377822875977,-0.4562044143676758,-3.6858716011047363
1687499577541857300,2.606857177734375,-0.600278377532959,-0.32889461517333984,-3.038766384124756
1687499577551912400,2.616912353515625,-1.0825326442718506,-0.22286701202392578,-2.1855220794677734
1687499577561967400,2.62696728515625,-1.4336419105529785,-0.07642841339111328,-1.558469295501709
1687499577572022500,2.6370224609375,-1.2543426752090454,0.00470733642578125,-1.0833967924118042
1687499577582077700,2.64707763671875,-0.8477354049682617,-0.0045642852783203125,-1.2109038829803467
1687499577592132600,2.657132568359375,-0.38967299461364746,-0.11998176574707031,-1.4473639726638794
1687499577602187800,2.667187744140625,-0.1586751937866211,-0.2707252502441406,-1.3974316120147705
1687499577612242700,2.67724267578125,-0.19211316108703613,-0.2996044158935547,-1.1990920305252075
1687499577622297900,2.6872978515625,-0.35230374336242676,-0.27866077423095703,-0.8255025148391724
1687499577632352800,2.697352783203125,-0.4354362487792969,-0.21776103973388672,-0.35264718532562256
1687499577642408000,2.707407958984375,-0.4367799758911133,-0.2655057907104492,0.04739511013031006
1687499577652462800,2.717462890625,-0.4990253448486328,-0.312164306640625,0.1763674020767212
1687499577662518000,2.72751806640625,-0.5648746490478516,-0.31467342376708984,0.07676267623901367
1687499577672573200,2.7375732421875,-0.5335342884063721,-0.34003543853759766,-0.05184376239776611
1687499577682628000,2.747628173828125,-0.4089772701263428,-0.32634830474853516,-0.13926410675048828
1687499577692683300,2.757683349609375,-0.28494715690612793,-0.29816436767578125,-0.13757747411727905
1687499577702738200,2.76773828125,-0.14637517929077148,-0.2558317184448242,-0.22707021236419678
1687499577712793300,2.77779345703125,0.012162446975708008,-0.27124977111816406,-0.36294615268707275
1687499577722848300,2.78784814453125,0.06745505332946777,-0.35875415802001953,-0.5016767978668213
1687499577732903400,2.7979033203125,-0.15657663345336914,-0.36055755615234375,-0.5774794220924377
1687499577742958300,2.807958251953125,-0.6474469900131226,-0.24745845794677734,-0.6505925059318542
1687499577753013500,2.818013427734375,-1.0884106159210205,-0.20966243743896484,-0.6804617643356323
1687499577763068400,2.828068359375,-1.3443392515182495,-0.1888570785522461,-0.6072195768356323
1687499577773123600,2.83812353515625,-1.2927800416946411,-0.2038412094116211,-0.5513738393783569
1687499577783178800,2.8481787109375,-0.9185436964035034,-0.17384052276611328,-0.5223147869110107
1687499577793233700,2.858233642578125,-0.3955298662185669,-0.1714916229248047,-0.394843190908432
1687499577803288800,2.868288818359375,-0.014786958694458008,-0.1884021759033203,-0.26343756914138794
1687499577813343700,2.87834375,0.13999223709106445,-0.11507797241210938,-0.266659140586853
1687499577823399000,2.88839892578125,0.5273983478546143,0.06746482849121094,-0.1760493516921997
1687499577833453800,2.898453857421875,1.6425204277038574,0.32001399993896484,0.08665025234222412
1687499577843509000,2.908509033203125,3.4099464416503906,0.4728975296020508,0.5088753700256348
1687499577853564000,2.91856396484375,5.6693339347839355,0.6902046203613281,1.4271390438079834
1687499577863619000,2.928619140625,7.693169593811035,0.6242399215698242,3.139730215072632
1687499577873674000,2.938674072265625,8.46339225769043,0.36828041076660156,5.3421220779418945
1687499577883729200,2.948729248046875,7.985908031463623,0.15842056274414062,8.036884307861328
1687499577893784300,2.958784423828125,6.490861892700195,-0.21485614776611328,10.996530532836914
1687499577903839200,2.968839111328125,4.863987445831299,-0.6158123016357422,14.092567443847656
1687499577913894400,2.978894287109375,3.253389835357666,-1.6108179092407227,18.512596130371094
1687499577923949300,2.98894921875,1.2970787286758423,-3.3944778442382812,23.32619857788086
1687499577934004500,2.99900439453125,-0.5211558938026428,-6.24675178527832,27.5164852142334
1687499577944059400,3.009059326171875,-2.456515312194824,-10.20829963684082,30.248159408569336
1687499577954114600,3.019114501953125,-4.155858039855957,-15.00471019744873,31.637723922729492
1687499577964169700,3.029169677734375,-5.770025253295898,-20.361783981323242,31.88810920715332
1687499577974225000,3.039224853515625,-7.174184799194336,-26.00102996826172,30.71924591064453
1687499577984279800,3.04927978515625,-7.535377502441406,-32.3427619934082,27.691265106201172
1687499577994335000,3.0593349609375,-5.075869560241699,-39.48379898071289,21.588634490966797
1687499578004390100,3.06939013671875,0.2702282667160034,-45.92613983154297,12.063453674316406
1687499578014445300,3.0794453125,6.454187393188477,-50.43328857421875,-0.8080902099609375
1687499578024500200,3.089500244140625,11.57143783569336,-51.092437744140625,-18.124801635742188
1687499578034555400,3.099555419921875,9.70705795288086,-47.44840621948242,-37.73827362060547
1687499578044610600,3.109610595703125,-5.512640953063965,-38.71590042114258,-52.957008361816406
1687499578054665700,3.119665771484375,-28.345993041992188,-27.708393096923828,-63.034278869628906
1687499578064720600,3.129720703125,-45.350948333740234,-21.708337783813477,-68.18824005126953
1687499578074775800,3.13977587890625,-46.20503234863281,-24.11747169494629,-63.51714324951172
1687499578084831000,3.1498310546875,-32.7640495300293,-32.16522216796875,-52.150020599365234
1687499578094886100,3.15988623046875,-16.200056076049805,-41.11408233642578,-39.710426330566406
1687499578104941000,3.169941162109375,-4.270347595214844,-49.62587356567383,-27.828372955322266
1687499578114996200,3.179996337890625,2.4098057746887207,-57.11039733886719,-17.020153045654297
1687499578125051400,3.190051513671875,4.508718490600586,-63.07745361328125,-7.207525253295898
1687499578135106600,3.2001064453125,2.6602931022644043,-66.25975799560547,2.59696102142334
1687499578145161500,3.210161376953125,-0.5311915278434753,-65.80997467041016,13.413328170776367
1687499578155216600,3.220216552734375,-2.576197624206543,-60.86387634277344,25.962265014648438
1687499578165271800,3.230271728515625,-2.5428361892700195,-49.47267150878906,37.25649642944336
1687499578175327000,3.240326904296875,2.102285385131836,-35.23133850097656,42.44420623779297
1687499578185382000,3.2503818359375,11.01212215423584,-21.450950622558594,41.27705383300781
1687499578195437000,3.26043701171875,20.49029541015625,-11.93412971496582,36.42753982543945
1687499578205492200,3.2704921875,25.7524356842041,-5.792837142944336,30.18056869506836
1687499578215547400,3.28054736328125,25.57401466369629,-2.9156765937805176,23.949382781982422
1687499578225602300,3.290602294921875,19.385141372680664,-2.245954990386963,19.590286254882812
1687499578235657500,3.300657470703125,10.88103199005127,-2.2385406494140625,17.907747268676758
1687499578245712600,3.310712646484375,3.428590774536133,-1.670736312866211,16.538835525512695
1687499578255767800,3.320767822265625,-1.2781505584716797,-0.5847253799438477,14.178077697753906
1687499578265822700,3.33082275390625,-3.2820823192596436,0.3809823989868164,10.840961456298828
1687499578275878000,3.3408779296875,-3.327000379562378,1.0099658966064453,7.336714744567871
1687499578285933000,3.35093310546875,-2.308948278427124,1.155008316040039,4.454751491546631
1687499578295988200,3.36098828125,-0.5722172260284424,0.9821033477783203,2.654770851135254
1687499578306043100,3.371043212890625,1.718541145324707,0.5349969863891602,1.9582784175872803
1687499578316098300,3.381098388671875,3.5565848350524902,0.034554481506347656,1.9762959480285645
1687499578326153500,3.391153564453125,3.8244071006774902,-0.3038759231567383,1.9693787097930908
1687499578336208600,3.401208740234375,2.7901034355163574,-0.3891429901123047,1.611238718032837
1687499578346263600,3.411263671875,1.5717170238494873,-0.43529796600341797,1.0216963291168213
1687499578356318700,3.421318603515625,0.5604825019836426,-0.6023597717285156,0.0543210506439209
1687499578366373600,3.43137353515625,-0.1987001895904541,-0.803131103515625,-1.0534871816635132
1687499578376428800,3.4414287109375,-0.7126240730285645,-0.9039936065673828,-2.057687282562256
1687499578386483700,3.451483642578125,-0.8038873672485352,-1.0081787109375,-2.6654300689697266
1687499578396539000,3.461538818359375,-0.8174560070037842,-0.7191066741943359,-3.4545650482177734
1687499578406594000,3.471593994140625,-0.7864871025085449,-0.5109453201293945,-3.6645078659057617
1687499578416649000,3.48164892578125,-0.7716166973114014,-0.3469867706298828,-3.204418182373047
1687499578426704100,3.4917041015625,-0.8008263111114502,-0.11926937103271484,-2.5596327781677246
1687499578436759000,3.501759033203125,-0.8369319438934326,-0.08241081237792969,-2.110244035720825
1687499578446814200,3.511814208984375,-0.641948938369751,-0.017162322998046875,-1.9076907634735107
1687499578456869000,3.521869140625,-0.3620617389678955,0.022375106811523438,-1.5700478553771973
1687499578466924300,3.53192431640625,-0.26282548904418945,0.01612377166748047,-1.2429734468460083
1687499578476979200,3.541979248046875,-0.1997978687286377,0.01635456085205078,-1.0643497705459595
1687499578487034400,3.552034423828125,-0.14401793479919434,0.1136016845703125,-1.110302209854126
1687499578497089500,3.562089599609375,-0.023900747299194336,0.04491138458251953,-1.0320839881896973
1687499578507144400,3.57214453125,-0.12077546119689941,0.03014659881591797,-1.011436939239502
1687499578517199600,3.58219970703125,-0.2725563049316406,0.11723041534423828,-1.0134601593017578
1687499578527254500,3.592254638671875,-0.3509254455566406,0.09119796752929688,-0.8493160605430603
1687499578537309700,3.602309814453125,-0.31769514083862305,-0.21498966217041016,-0.5465764403343201
1687499578547364600,3.612364501953125,-0.31947052478790283,-0.13265609741210938,-0.5041642189025879
1687499578557419800,3.622419677734375,-0.4957873821258545,0.007855415344238281,-0.37725961208343506
1687499578567474700,3.632474609375,-0.5181132555007935,-0.05134105682373047,-0.010451674461364746
1687499578577529900,3.64252978515625,-0.42955493927001953,-0.18587970733642578,0.4229883551597595
1687499578587584800,3.652584716796875,-0.31467533111572266,-0.13837814331054688,0.6792851686477661
1687499578597640000,3.662639892578125,-0.1391925811767578,-0.11500740051269531,0.6367281079292297
1687499578607695000,3.672695068359375,-0.048984408378601074,-0.13992977142333984,0.37992215156555176
1687499578617750000,3.68275,-0.05637383460998535,-0.15107059478759766,-0.007907271385192871
1687499578627805200,3.69280517578125,-0.06563103199005127,-0.1338634490966797,-0.47320494055747986
1687499578637860000,3.702860107421875,-0.01510465145111084,-0.06891441345214844,-0.6430696249008179
1687499578647915300,3.712915283203125,0.13936758041381836,-0.17138290405273438,-0.5532727837562561
1687499578657970200,3.72297021484375,0.2845296859741211,-0.11154556274414062,-0.6105495095252991
1687499578668025300,3.733025390625,0.7404366731643677,0.14377307891845703,-0.4673308730125427
1687499578678080300,3.743080322265625,1.6366229057312012,0.19199466705322266,0.08125483989715576
1687499578688135400,3.753135498046875,3.231431484222412,0.2996501922607422,0.6129976511001587
1687499578698190300,3.7631904296875,5.397013187408447,0.4696540832519531,1.6839238405227661
1687499578708245500,3.77324560546875,7.101362228393555,0.2840604782104492,3.4581241607666016
1687499578718300700,3.78330078125,8.475654602050781,0.15480709075927734,5.867526531219482
1687499578728355600,3.79335546875,9.1234130859375,0.23273658752441406,9.466619491577148
1687499578738410800,3.80341064453125,8.416143417358398,-0.38080406188964844,14.19940185546875
1687499578748465700,3.813465576171875,6.604850769042969,-1.2893524169921875,19.487943649291992
1687499578758520800,3.823520751953125,3.800288200378418,-2.555479049682617,26.475021362304688
1687499578768576000,3.833575927734375,-0.1925506591796875,-5.543225288391113,32.035091400146484
1687499578778631200,3.843631103515625,-4.224681854248047,-9.704011917114258,35.56666946411133
1687499578788686000,3.85368603515625,-7.543414115905762,-15.820255279541016,37.4378662109375
1687499578798741200,3.8637412109375,-9.542017936706543,-23.742435455322266,36.6475715637207
1687499578808796400,3.87379638671875,-12.498147964477539,-33.29205322265625,32.99457931518555
1687499578818851600,3.8838515625,-11.858920097351074,-40.947017669677734,25.751930236816406
1687499578828906500,3.893906494140625,-7.331784248352051,-46.23472595214844,14.57076644897461
1687499578838961700,3.903961669921875,-0.05540299415588379,-49.27943801879883,1.2271013259887695
1687499578849016800,3.914016845703125,8.19011116027832,-48.168426513671875,-14.080499649047852
1687499578859072000,3.924072021484375,13.208150863647461,-41.574798583984375,-29.774662017822266
1687499578869127000,3.934126953125,9.305704116821289,-33.913063049316406,-40.28268051147461
1687499578879182000,3.94418212890625,-2.6243395805358887,-24.40188980102539,-47.20908737182617
1687499578889237200,3.9542373046875,-14.76527214050293,-17.357742309570312,-49.12046813964844
1687499578899292400,3.96429248046875,-21.520652770996094,-15.041690826416016,-47.818748474121094
1687499578909347300,3.974347412109375,-21.768600463867188,-16.322914123535156,-42.87027359008789
1687499578919402500,3.984402587890625,-18.22398567199707,-19.1181640625,-35.56655502319336
1687499578929457700,3.994457763671875,-13.648088455200195,-22.08803939819336,-28.436052322387695
1687499578939512800,4.004512939453125,-8.956367492675781,-25.53004264831543,-22.767475128173828
1687499578949567700,4.014567626953125,-5.467291831970215,-29.4702091217041,-17.609027862548828
1687499578959623000,4.024622802734375,-3.3381192684173584,-33.21746063232422,-12.924771308898926
1687499578969678000,4.034677978515625,-2.3165719509124756,-36.98997116088867,-8.723184585571289
1687499578979733200,4.044733154296875,-2.22652006149292,-40.1957893371582,-4.151893615722656
1687499578989788200,4.0547880859375,-2.6832401752471924,-42.46628189086914,0.32883310317993164
1687499578999843300,4.06484326171875,-3.5552263259887695,-43.64571762084961,5.022501468658447
1687499579009898500,4.0748984375,-4.3795084953308105,-43.29756164550781,10.43262767791748
1687499579019953700,4.08495361328125,-4.45875883102417,-40.89360809326172,16.317426681518555
1687499579030008600,4.095008544921875,-2.9565367698669434,-36.293704986572266,22.059823989868164
1687499579040063700,4.105063720703125,1.9370447397232056,-29.067155838012695,26.59125518798828
1687499579050119000,4.115118896484375,10.8574857711792,-22.09784507751465,27.716062545776367
1687499579060174000,4.125174072265625,18.82411766052246,-15.650993347167969,24.27948760986328
1687499579070229000,4.13522900390625,22.79316520690918,-9.675485610961914,19.23224639892578
1687499579080284200,4.1452841796875,21.40755844116211,-5.513956069946289,16.749435424804688
1687499579090339300,4.15533935546875,15.673013687133789,-2.795170783996582,18.24286651611328
1687499579100394500,4.16539453125,8.885322570800781,-1.1456704139709473,20.483448028564453
1687499579110449400,4.175449462890625,3.2436845302581787,-0.04736804962158203,20.467350006103516
1687499579120504600,4.185504638671875,-0.4183492660522461,0.8090000152587891,17.990798950195312
1687499579130559700,4.195559814453125,-1.8445546627044678,1.219456672668457,14.020050048828125
1687499579140615000,4.205614990234375,-1.6287012100219727,1.3007707595825195,9.81924819946289
1687499579150669800,4.215669921875,-0.6718161106109619,0.8160347938537598,6.409559726715088
1687499579160725000,4.22572509765625,0.1549384593963623,0.13477563858032227,3.9463109970092773
1687499579170780200,4.2357802734375,0.6172199249267578,-0.06482791900634766,2.378068447113037
1687499579180835300,4.24583544921875,0.895357608795166,0.18833255767822266,1.3828182220458984
1687499579190890200,4.25589013671875,0.9176936149597168,0.30969905853271484,0.8680438995361328
1687499579200945400,4.2659453125,0.5235385894775391,0.19225311279296875,0.700310230255127
1687499579211000600,4.27600048828125,-0.16022253036499023,0.10712909698486328,0.7106919288635254
1687499579221055700,4.2860556640625,-0.788266658782959,0.144622802734375,0.6756253242492676
1687499579231110700,4.296110595703125,-1.0669472217559814,0.2041482925415039,0.4142143726348877
1687499579241165800,4.306165771484375,-0.9319841861724854,0.18663692474365234,0.012908458709716797
1687499579251221000,4.316220947265625,-0.6478180885314941,0.026373863220214844,-0.2020106315612793
1687499579261276200,4.326276123046875,-0.27394771575927734,-0.051575660705566406,-0.3505861759185791
1687499579271331000,4.3363310546875,0.06515908241271973,-0.208953857421875,-0.7713804244995117
1687499579281386200,4.34638623046875,0.26563096046447754,-0.36600494384765625,-2.0173280239105225
1687499579291441400,4.35644140625,0.31465911865234375,-0.3034353256225586,-3.3145735263824463
1687499579301496600,4.36649658203125,0.16361308097839355,-0.11542510986328125,-3.9509105682373047
1687499579311551500,4.376551513671875,-0.23596763610839844,0.0402069091796875,-3.831608533859253
1687499579321606700,4.386606689453125,-0.6867125034332275,0.1865224838256836,-3.308831214904785
1687499579331661800,4.396661865234375,-0.9849776029586792,0.33625125885009766,-2.6748838424682617
1687499579341717000,4.406717041015625,-1.0686976909637451,0.4158906936645508,-2.02122163772583
1687499579351772000,4.41677197265625,-0.9047325849533081,0.4183988571166992,-1.4167869091033936
1687499579361827000,4.4268271484375,-0.6718015670776367,0.33713340759277344,-1.0104628801345825
1687499579371882200,4.43688232421875,-0.3468034267425537,0.26723289489746094,-0.9851874113082886
1687499579381937400,4.4469375,0.13384056091308594,0.22308063507080078,-1.1987930536270142
1687499579391992300,4.456992431640625,0.5899157524108887,0.10379886627197266,-1.4213615655899048
1687499579402047500,4.467047607421875,0.8289377689361572,-0.08120155334472656,-1.5165846347808838
1687499579412102700,4.4771025390625,0.6843729019165039,-0.17420673370361328,-1.2887482643127441
1687499579422157800,4.48715771484375,0.24570941925048828,-0.15170764923095703,-0.7499610185623169
1687499579432212700,4.497212646484375,-0.2476806640625,-0.1335153579711914,-0.12470650672912598
1687499579442268000,4.507267822265625,-0.682021975517273,-0.14835357666015625,0.35381412506103516
1687499579452323000,4.517322998046875,-0.9940416812896729,-0.0960378646850586,0.5273563861846924
1687499579462378200,4.527378173828125,-1.0653663873672485,0.009154319763183594,0.35799264907836914
1687499579472433200,4.53743310546875,-0.9332928657531738,0.02427959442138672,0.0914614200592041
1687499579482488300,4.54748828125,-0.5477014780044556,0.03098297119140625,-0.04631662368774414
1687499579492543500,4.55754345703125,-0.05659341812133789,0.023749351501464844,-0.014686107635498047
1687499579502598700,4.5675986328125,0.24811434745788574,0.006077766418457031,0.02951216697692871
1687499579512653600,4.577653564453125,0.3236846923828125,0.05391979217529297,0.09809088706970215
1687499579522708700,4.587708740234375,0.14480161666870117,0.10965156555175781,0.2794609069824219
1687499579532764000,4.597763916015625,-0.14218854904174805,0.10651779174804688,0.38874077796936035
1687499579542819000,4.607819091796875,-0.342984676361084,0.09815216064453125,0.17081403732299805
1687499579552874000,4.6178740234375,-0.4299788475036621,0.0953359603881836,-0.12456893920898438
1687499579562929200,4.62792919921875,-0.36152219772338867,0.10359954833984375,-0.3132336139678955
1687499579572984300,4.637984375,-0.15121805667877197,0.060952186584472656,-0.3254101276397705
1687499579583039500,4.64803955078125,0.1652967929840088,0.04369068145751953,-0.12961316108703613
1687499579593094400,4.658094482421875,0.467693567276001,0.03159618377685547,0.33667564392089844
1687499579603149600,4.668149658203125,0.6541537046432495,0.023240089416503906,0.9567649364471436
1687499579613204700,4.678204833984375,0.9735686779022217,0.10822200775146484,1.7590446472167969
1687499579623260000,4.688260009765625,1.9769197702407837,0.3657217025756836,2.6440982818603516
1687499579633315000,4.698315185546875,4.424789905548096,0.7115583419799805,4.038699626922607
1687499579643370200,4.708370361328125,7.813957214355469,0.830449104309082,6.586219787597656
1687499579653425400,4.71842529296875,11.617929458618164,0.5668525695800781,11.559747695922852
1687499579663480600,4.72848046875,14.546795845031738,-0.7662076950073242,19.05345916748047
1687499579673535700,4.73853564453125,14.582758903503418,-3.577688694000244,27.942562103271484
1687499579683591000,4.7485908203125,10.42992877960205,-7.688871383666992,37.130943298339844
1687499579693646000,4.75864599609375,4.135646820068359,-13.195867538452148,43.83445358276367
1687499579703701200,4.768701171875,-1.693365454673767,-20.360084533691406,46.87275695800781
1687499579713756400,4.77875634765625,-6.410148620605469,-28.738374710083008,45.926361083984375
1687499579723811600,4.7888115234375,-8.873941421508789,-40.34603500366211,43.39690017700195
1687499579733866800,4.79886669921875,-8.668712615966797,-53.50548553466797,39.03569412231445
1687499579743922000,4.808921875,-5.120723724365234,-64.57965850830078,31.123899459838867
1687499579753977000,4.81897705078125,0.21211791038513184,-72.88726806640625,17.015151977539062
1687499579764032300,4.8290322265625,4.969610691070557,-74.39570617675781,-3.5498247146606445
1687499579774087400,4.83908740234375,6.400720596313477,-66.41119384765625,-25.486461639404297
1687499579784142600,4.849142578125,-0.9310564994812012,-52.80331039428711,-42.69731140136719
1687499579794197800,4.85919775390625,-16.607894897460938,-37.707035064697266,-53.70783996582031
1687499579804252700,4.869252685546875,-32.9963264465332,-25.752971649169922,-58.19831085205078
1687499579814307800,4.879307861328125,-41.597068786621094,-20.36875343322754,-55.69870376586914
1687499579824363000,4.889363037109375,-39.573089599609375,-20.74618911743164,-46.5466194152832
1687499579834418200,4.899418212890625,-28.290868759155273,-23.287250518798828,-34.524776458740234
1687499579844473300,4.909473388671875,-14.498851776123047,-25.208744049072266,-24.762733459472656
1687499579854528500,4.919528564453125,-3.2555437088012695,-26.359304428100586,-17.29644203186035
1687499579864583700,4.929583740234375,3.527125835418701,-26.92964744567871,-11.490989685058594
1687499579874638800,4.939638916015625,6.349245071411133,-27.321096420288086,-7.183871269226074
1687499579884694000,4.949694091796875,5.938966274261475,-27.69194793701172,-4.227480888366699
1687499579894749200,4.959749267578125,3.8239407539367676,-28.111400604248047,-2.14077091217041
1687499579904804400,4.969804443359375,1.8676332235336304,-28.86971092224121,-0.6883220672607422
1687499579914859500,4.979859619140625,0.3543539047241211,-29.74001693725586,0.3352813720703125
1687499579924914700,4.989914794921875,-1.6223626136779785,-30.39922332763672,1.9426827430725098
1687499579934969900,4.999969970703125,-4.161553859710693,-30.501218795776367,4.190342903137207
1687499579945025000,5.01002490234375,-6.392386436462402,-29.98892593383789,7.022001266479492
1687499579955080200,5.020080078125,-7.472906589508057,-28.578662872314453,10.896056175231934
1687499579965135400,5.03013525390625,-6.769660949707031,-25.875568389892578,15.83299732208252
1687499579975190500,5.0401904296875,-4.790355205535889,-21.450862884521484,21.31707191467285
1687499579985245700,5.05024560546875,-0.8915010690689087,-15.694089889526367,25.55555534362793
1687499579995300600,5.060300537109375,4.200231552124023,-10.097715377807617,27.06340217590332
1687499580005355800,5.070355712890625,9.876535415649414,-6.199348449707031,24.85922622680664
1687499580015411000,5.080410888671875,14.265417098999023,-3.848741054534912,21.46308708190918
1687499580025466000,5.090466064453125,16.05430793762207,-1.4562177658081055,18.5240421295166
1687499580035521000,5.10052099609375,14.015076637268066,0.27590084075927734,16.3300838470459
1687499580045576200,5.110576171875,9.317570686340332,0.5895156860351562,14.700509071350098
1687499580055631400,5.12063134765625,4.365769386291504,0.4159679412841797,12.722766876220703
1687499580065686500,5.1306865234375,0.3795738220214844,0.565277099609375,10.086625099182129
1687499580075741400,5.140741455078125,-2.2205464839935303,0.7497739791870117,6.910790920257568
1687499580085796600,5.150796630859375,-3.516894817352295,1.1696157455444336,3.7577691078186035
1687499580095851800,5.160851806640625,-3.7051188945770264,1.3067941665649414,1.730888843536377
1687499580105907000,5.170906982421875,-2.689296007156372,0.571101188659668,0.664099931716919
1687499580115961900,5.1809619140625,-1.0242421627044678,-0.26651859283447266,0.1844184398651123
1687499580126017000,5.19101708984375,0.27453017234802246,-0.5633678436279297,0.036396026611328125
1687499580136072200,5.201072265625,0.635894775390625,-0.5447654724121094,-0.127488374710083
1687499580146127400,5.21112744140625,0.07866311073303223,-0.5274848937988281,-0.09242582321166992
1687499580156182300,5.221182373046875,-0.9765142202377319,-0.5346441268920898,0.2367866039276123
1687499580166237400,5.231237548828125,-1.7581205368041992,-0.583369255065918,0.1357431411743164
1687499580176292600,5.241292724609375,-1.732438325881958,-0.37030506134033203,-0.14435434341430664
1687499580186347800,5.25134765625,-1.0320160388946533,-0.27911853790283203,-0.1537255048751831
1687499580196402700,5.261402587890625,-0.3544731140136719,-0.43152427673339844,-0.0704348087310791
1687499580206457900,5.271457763671875,-0.07593154907226562,-0.43171119689941406,-0.038495659828186035
1687499580216513000,5.281512939453125,-0.04713630676269531,-0.2745037078857422,-0.31902825832366943
1687499580226568200,5.291568115234375,-0.0986936092376709,-0.31635284423828125,-0.8756749629974365
1687499580236623000,5.301623046875,0.01715230941772461,-0.2453927993774414,-1.3358396291732788
1687499580246678300,5.31167822265625,0.11139345169067383,-0.15807723999023438,-1.5011155605316162
1687499580256733400,5.3217333984375,-0.03082132339477539,-0.1217498779296875,-1.55775785446167
1687499580266788600,5.33178857421875,-0.27834606170654297,-0.09761524200439453,-1.5246871709823608
1687499580276843500,5.341843505859375,-0.3237013816833496,-0.06598472595214844,-1.5168486833572388
1687499580286898700,5.351898681640625,-0.15248417854309082,-0.08437442779541016,-1.5833978652954102
1687499580296953900,5.361953857421875,0.01735854148864746,-0.08628177642822266,-1.5972670316696167
1687499580307009000,5.372009033203125,0.06355166435241699,-0.06268024444580078,-1.4829965829849243
1687499580317064000,5.38206396484375,0.014317989349365234,-0.09485530853271484,-1.2874923944473267
1687499580327119000,5.392119140625,-0.05143594741821289,-0.11552810668945312,-0.9078912734985352
1687499580337174300,5.40217431640625,-0.06159257888793945,-0.024896621704101562,-0.3984959125518799
1687499580347229400,5.4122294921875,-0.12454581260681152,-0.04381847381591797,0.06337308883666992
1687499580357284400,5.422284423828125,-0.21758413314819336,-0.09589481353759766,0.4350864887237549
1687499580367339500,5.432339599609375,-0.2234327793121338,-0.07619857788085938,0.8276333808898926
1687499580377394700,5.442394775390625,-0.17592430114746094,-0.004520416259765625,1.0776969194412231
1687499580387449900,5.452449951171875,0.051741600036621094,0.10889911651611328,0.9270058870315552
1687499580397505000,5.462505126953125,0.19560766220092773,0.101226806640625,0.5011395215988159
1687499580407560200,5.472560302734375,0.15178823471069336,-0.0126953125,0.15575480461120605
1687499580417615400,5.482615478515625,0.11542725563049316,0.03085041046142578,-0.1513676643371582
1687499580427670500,5.49267041015625,0.2542235851287842,0.17956256866455078,-0.4742211103439331
1687499580437725700,5.5027255859375,0.4088125228881836,0.06042289733886719,-0.7743850946426392
1687499580447780900,5.51278076171875,0.3463270664215088,-0.07767009735107422,-0.885200023651123
1687499580457836000,5.5228359375,0.09187507629394531,-0.00010967254638671875,-0.6744139194488525
1687499580467891200,5.53289111328125,-0.02408421039581299,0.20243072509765625,-0.1302483081817627
1687499580477946000,5.542946044921875,0.2664250135421753,0.33811473846435547,0.9448796510696411
1687499580488001300,5.553001220703125,1.4402989149093628,0.5434169769287109,2.678152084350586
1687499580498056400,5.563056396484375,3.450922966003418,0.8522615432739258,5.041339874267578
1687499580508111600,5.573111572265625,5.653063774108887,1.1491994857788086,8.341294288635254
1687499580518166800,5.583166748046875,7.597617149353027,1.1328210830688477,13.941920280456543
1687499580528222000,5.593221923828125,9.079562187194824,0.7223720550537109,22.32897186279297
1687499580538277000,5.603277099609375,11.048541069030762,-0.3377704620361328,32.73717498779297
1687499580548332300,5.613332275390625,12.439079284667969,-4.338407516479492,42.73030090332031
1687499580558387500,5.623387451171875,11.201057434082031,-12.790056228637695,49.394126892089844
1687499580568442600,5.633442626953125,7.805459499359131,-23.097076416015625,51.808258056640625
1687499580578497800,5.643497802734375,3.645578622817993,-33.51036834716797,49.6955451965332
1687499580588553000,5.653552978515625,-0.10222959518432617,-43.58578872680664,42.59339904785156
1687499580598608100,5.663608154296875,-2.0041732788085938,-52.73681640625,29.21615219116211
1687499580608663300,5.673663330078125,-1.712571620941162,-59.16380310058594,10.28486156463623
1687499580618718500,5.683718505859375,-1.6639208793640137,-58.65765380859375,-9.12324333190918
1687499580628773600,5.693773681640625,-6.142091274261475,-49.83076858520508,-23.5822811126709
1687499580638828800,5.703828857421875,-16.813182830810547,-38.32436752319336,-35.56341552734375
1687499580648884000,5.713884033203125,-26.175132751464844,-27.35025978088379,-40.63557815551758
1687499580658939100,5.723939208984375,-28.343978881835938,-21.1246337890625,-37.66392517089844
1687499580668994300,5.733994384765625,-26.191837310791016,-19.614295959472656,-34.5205078125
1687499580679049500,5.744049560546875,-23.05850601196289,-18.646928787231445,-30.89110565185547
1687499580689104600,5.754104736328125,-19.11699676513672,-18.29604148864746,-26.545589447021484
1687499580699159600,5.76415966796875,-14.073837280273438,-18.172216415405273,-23.405649185180664
1687499580709214700,5.774214599609375,-9.044160842895508,-18.423725128173828,-21.691164016723633
1687499580719270000,5.784269775390625,-5.428369045257568,-19.325687408447266,-19.981597900390625
1687499580729325000,5.794324951171875,-3.7409932613372803,-20.465858459472656,-17.08458709716797
1687499580739380200,5.804380126953125,-2.9612369537353516,-22.036197662353516,-12.796405792236328
1687499580749435400,5.814435302734375,-2.2872071266174316,-24.213945388793945,-8.58525562286377
1687499580759490600,5.824490478515625,-2.249828815460205,-26.114913940429688,-4.670171737670898
1687499580769545700,5.834545654296875,-3.542334794998169,-27.04395294189453,-0.4661750793457031
1687499580779601000,5.844600830078125,-5.720657825469971,-27.254657745361328,3.7354769706726074
1687499580789656000,5.854656005859375,-7.349417686462402,-26.851272583007812,7.193662166595459
1687499580799711200,5.864711181640625,-7.582234859466553,-25.746620178222656,11.03557014465332
1687499580809766400,5.874766357421875,-6.67322301864624,-23.91421127319336,15.847967147827148
1687499580819821600,5.884821533203125,-5.287619113922119,-21.127338409423828,19.625205993652344
1687499580829876700,5.894876708984375,-2.4212965965270996,-16.661766052246094,21.517147064208984
1687499580839932000,5.904931884765625,2.845309019088745,-12.20193099975586,21.62326431274414
1687499580849987000,5.914987060546875,9.090799331665039,-9.345301628112793,19.558706283569336
1687499580860042200,5.925042236328125,13.650291442871094,-6.755158424377441,17.320735931396484
1687499580870097400,5.935097412109375,14.949813842773438,-3.8968563079833984,15.588493347167969
1687499580880152600,5.945152587890625,13.242338180541992,-1.633251667022705,14.143147468566895
1687499580890207700,5.955207763671875,9.958847045898438,0.14519500732421875,14.418290138244629
1687499580900263000,5.965262939453125,6.371369361877441,0.810664176940918,15.22478199005127
1687499580910318000,5.975318115234375,3.3465025424957275,0.7846775054931641,14.582330703735352
1687499580920373000,5.985373046875,1.2929530143737793,0.8816719055175781,11.996190071105957
1687499580930428200,5.99542822265625,0.17408275604248047,0.9165382385253906,8.759099006652832
1687499580940483300,6.0054833984375,-0.40721678733825684,0.7742938995361328,5.92369270324707
1687499580950538500,6.01553857421875,-0.7032830715179443,0.5438089370727539,4.099702835083008
1687499580960593700,6.02559375,-0.6980514526367188,0.3360319137573242,3.103926181793213
1687499580970648800,6.03564892578125,-0.25753116607666016,-0.03576946258544922,2.232618570327759
1687499580980704000,6.0457041015625,0.4025609493255615,-0.3151979446411133,1.3988213539123535
1687499580990759200,6.05575927734375,0.7294354438781738,-0.5806550979614258,0.7079321146011353
1687499581000814300,6.065814453125,0.5748426914215088,-0.7747745513916016,0.07541629672050476
1687499581010869500,6.075869384765625,0.14992284774780273,-0.8152065277099609,-0.6888973116874695
1687499581020924700,6.085924560546875,-0.33982229232788086,-0.8298931121826172,-1.408969759941101
1687499581030979800,6.095979736328125,-0.9763652086257935,-0.8462314605712891,-1.6717431545257568
1687499581041035000,6.106034912109375,-1.535283088684082,-0.7438020706176758,-1.4776747226715088
1687499581051090200,6.116090087890625,-1.7899150848388672,-0.5847272872924805,-1.3185930252075195
1687499581061145300,6.126145263671875,-1.8041971921920776,-0.5889759063720703,-1.2823870182037354
1687499581071200500,6.136200439453125,-1.5111782550811768,-0.6040105819702148,-1.4935773611068726
1687499581081255700,6.146255615234375,-0.8455995321273804,-0.46910572052001953,-1.901376485824585
1687499581091310800,6.156310791015625,-0.13150644302368164,-0.325531005859375,-2.263814926147461
1687499581101366000,6.166365966796875,0.35004568099975586,-0.27530384063720703,-2.155477285385132
1687499581111421200,6.176421142578125,0.4734382629394531,-0.2134838104248047,-1.6562516689300537
1687499581121476400,6.186476318359375,0.28075408935546875,-0.024410247802734375,-0.9385887384414673
1687499581131531300,6.19653125,0.021511077880859375,0.06409072875976562,-0.3737116754055023
1687499581141586400,6.20658642578125,-0.12031292915344238,0.11530208587646484,-0.016452878713607788
1687499581151641600,6.2166416015625,-0.16403961181640625,0.19622039794921875,0.21217522025108337
1687499581161696800,6.22669677734375,-0.1823899745941162,0.23511695861816406,0.031212300062179565
1687499581171752000,6.236751953125,-0.16127276420593262,0.25565242767333984,-0.2940869629383087
1687499581181807000,6.24680712890625,0.03875136375427246,0.27170753479003906,-0.5010889768600464
1687499581191862300,6.2568623046875,0.3817110061645508,0.2968788146972656,-0.5965124368667603
1687499581201917400,6.26691748046875,0.6606194972991943,0.24429988861083984,-0.6425684690475464
1687499581211972600,6.27697265625,0.7637474536895752,0.17563915252685547,-0.5666797161102295
1687499581222027800,6.28702783203125,0.5714278221130371,0.20592403411865234,-0.2753903865814209
1687499581232083000,6.2970830078125,0.23850750923156738,0.29784393310546875,-0.02123531699180603
1687499581242138000,6.30713818359375,-0.013134241104125977,0.35663604736328125,0.2876468896865845
1687499581252193300,6.317193359375,-0.20337152481079102,0.30614185333251953,0.5113661289215088
1687499581262248400,6.32724853515625,-0.34270262718200684,0.3043479919433594,0.35672280192375183
1687499581272303600,6.3373037109375,-0.46071362495422363,0.2986135482788086,-0.047530949115753174
1687499581282358800,6.34735888671875,-0.514631986618042,0.26018524169921875,-0.48157379031181335
1687499581292414000,6.3574140625,-0.4702444076538086,0.22701263427734375,-0.8349066376686096
1687499581302469000,6.36746923828125,-0.3601853847503662,0.17488765716552734,-0.948087215423584
1687499581312524300,6.377524169921875,-0.26923179626464844,0.11310768127441406,-1.0035202503204346
1687499581322579500,6.387579345703125,-0.19116473197937012,0.06530952453613281,-0.9864132404327393
1687499581332634600,6.397634521484375,-0.216292142868042,-0.0067424774169921875,-0.8336958885192871
1687499581342689800,6.407689697265625,-0.24029994010925293,0.026332855224609375,-0.7766902446746826
1687499581352744700,6.41774462890625,-0.015285253524780273,0.13111591339111328,-0.12124726921319962
1687499581362799900,6.4277998046875,0.6081900596618652,0.22583293914794922,0.9056324362754822
1687499581372855000,6.43785498046875,1.8257431983947754,0.46661949157714844,2.153442859649658
1687499581382910200,6.44791015625,3.67043137550354,0.558746337890625,4.167775630950928
1687499581392965400,6.45796533203125,5.891414642333984,0.6361789703369141,7.434253692626953
1687499581403020500,6.4680205078125,7.588595390319824,0.5266571044921875,13.111992835998535
1687499581413075700,6.47807568359375,7.895308017730713,0.21098709106445312,22.017223358154297
1687499581423131000,6.488130859375,7.045436859130859,-0.3696622848510742,32.380958557128906
1687499581433186000,6.49818603515625,5.734166145324707,-2.445868492126465,40.220584869384766
1687499581443241200,6.5082412109375,4.244037628173828,-6.9142303466796875,43.99103927612305
1687499581453296400,6.51829638671875,3.1786553859710693,-12.924188613891602,42.178436279296875
1687499581463351600,6.5283515625,2.827157497406006,-17.818485260009766,38.15099334716797
1687499581473406700,6.53840673828125,3.81365966796875,-22.590808868408203,33.50430679321289
1687499581483462000,6.5484619140625,6.356705188751221,-29.164634704589844,27.83881378173828
1687499581493517000,6.55851708984375,9.918153762817383,-36.49920654296875,19.711641311645508
1687499581503572200,6.568572265625,13.500202178955078,-42.288997650146484,7.970441818237305
1687499581513627400,6.57862744140625,14.220439910888672,-45.73585891723633,-4.246932029724121
1687499581523682600,6.5886826171875,10.389896392822266,-45.20160675048828,-14.952008247375488
1687499581533737700,6.59873779296875,2.4367623329162598,-41.03596115112305,-23.017066955566406
1687499581543793000,6.60879296875,-7.652224540710449,-36.646766662597656,-29.291337966918945
1687499581553848000,6.61884814453125,-18.056201934814453,-31.750205993652344,-31.936927795410156
1687499581563903200,6.6289033203125,-27.895429611206055,-25.861309051513672,-31.817615509033203
1687499581573958100,6.638958251953125,-33.3381462097168,-21.170196533203125,-29.315391540527344
1687499581584013300,6.649013427734375,-31.540159225463867,-18.47334861755371,-24.483135223388672
1687499581594068500,6.659068359375,-24.335357666015625,-17.29049301147461,-18.807235717773438
1687499581604123600,6.66912353515625,-15.565762519836426,-16.849416732788086,-13.84428596496582
1687499581614178800,6.6791787109375,-7.853941917419434,-16.462425231933594,-10.189486503601074
1687499581624234000,6.68923388671875,-2.4745261669158936,-15.978195190429688,-7.536602020263672
1687499581634289200,6.6992890625,0.42890453338623047,-15.372512817382812,-5.27496337890625
1687499581644344300,6.70934423828125,1.083677887916565,-15.354567527770996,-3.842167854309082
1687499581654399500,6.7193994140625,0.12919831275939941,-15.876201629638672,-3.314852714538574
1687499581664454700,6.72945458984375,-1.9572925567626953,-16.634735107421875,-3.6095542907714844
1687499581674509800,6.739509765625,-4.173041343688965,-17.65131187438965,-4.255881309509277
1687499581684565000,6.74956494140625,-5.497189521789551,-19.122447967529297,-5.122831344604492
1687499581694620200,6.7596201171875,-6.602115631103516,-21.3427734375,-5.815945625305176
1687499581704675300,6.76967529296875,-7.773320198059082,-24.049467086791992,-5.482580184936523
1687499581714730500,6.77973046875,-8.812326431274414,-26.276426315307617,-3.683248519897461
1687499581724785700,6.78978564453125,-7.983004570007324,-28.264768600463867,-0.3845181465148926
1687499581734840800,6.7998408203125,-4.073814868927002,-29.959035873413086,3.5464060306549072
1687499581744896000,6.80989599609375,1.1771717071533203,-30.75429916381836,8.669480323791504
1687499581754951200,6.819951171875,6.401983261108398,-29.894229888916016,15.635530471801758
1687499581765006300,6.83000634765625,11.574731826782227,-26.797313690185547,23.489055633544922
1687499581775061500,6.8400615234375,15.462665557861328,-20.138330459594727,29.293203353881836
1687499581785116700,6.85011669921875,16.891246795654297,-10.588033676147461,30.768888473510742
1687499581795171600,6.860171630859375,16.48811912536621,-2.0471949577331543,30.174549102783203
1687499581805226800,6.870226806640625,14.99199104309082,1.9764699935913086,27.945098876953125
1687499581815282000,6.880281982421875,12.029291152954102,1.6827049255371094,23.86996841430664
1687499581825337000,6.890337158203125,8.531492233276367,0.6592140197753906,18.047088623046875
1687499581835392300,6.900392333984375,5.41851806640625,0.9030961990356445,11.54525375366211
1687499581845447400,6.910447509765625,2.9927568435668945,1.5621662139892578,5.901019096374512
1687499581855502600,6.920502685546875,0.9819951057434082,2.034083366394043,2.1254584789276123
1687499581865557800,6.930557861328125,-0.6187758445739746,1.960515022277832,0.18788233399391174
1687499581875613000,6.940613037109375,-1.3246288299560547,1.4660053253173828,-0.35052552819252014
1687499581885668000,6.950668212890625,-0.8971302509307861,1.0336380004882812,0.7594690918922424
1687499581895723300,6.96072314453125,0.12878036499023438,0.6967334747314453,2.723259925842285
1687499581905778400,6.9707783203125,0.9085972309112549,0.40180015563964844,3.937917709350586
1687499581915833600,6.98083349609375,1.2567310333251953,0.27481937408447266,4.203629970550537
1687499581925888800,6.990888671875,1.2794220447540283,0.14796161651611328,3.893947124481201
1687499581935944000,7.00094384765625,1.2911787033081055,0.008519172668457031,2.7849154472351074
1687499581945999000,7.0109990234375,1.2793586254119873,-0.17122650146484375,1.247387409210205
1687499581956054300,7.02105419921875,1.020293951034546,-0.30445384979248047,-0.19895559549331665
1687499581966109400,7.031109375,0.5298411846160889,-0.3611898422241211,-1.703460693359375
1687499581976164600,7.04116455078125,0.022359609603881836,-0.4026937484741211,-3.0169315338134766
1687499581986219800,7.0512197265625,-0.44982409477233887,-0.376190185546875,-3.7438573837280273
1687499581996275000,7.06127490234375,-0.8951189517974854,-0.17648029327392578,-3.6369595527648926
1687499582006330000,7.071330078125,-1.2504072189331055,0.05393695831298828,-2.7809934616088867
1687499582016385000,7.081385009765625,-1.254751443862915,0.19689273834228516,-1.3580845594406128
1687499582026440200,7.091440185546875,-0.8878018856048584,0.19539546966552734,-0.023694217205047607
1687499582036495400,7.101495361328125,-0.2795412540435791,0.2492237091064453,0.5423827171325684
1687499582046550500,7.111550537109375,0.3117232322692871,0.34197330474853516,0.4256497025489807
1687499582056605700,7.121605712890625,0.8044240474700928,0.38086891174316406,-0.015172243118286133
1687499582066660900,7.131660888671875,1.0443623065948486,0.34537792205810547,-0.3752845525741577
1687499582076716000,7.141716064453125,0.9517240524291992,0.30214977264404297,-0.5094169974327087
1687499582086771200,7.151771240234375,0.7263104915618896,0.37131404876708984,-0.4745017886161804
1687499582096826400,7.161826416015625,0.4377906322479248,0.36273765563964844,-0.2706683278083801
1687499582106881500,7.171881591796875,0.1079709529876709,0.24909591674804688,0.14525780081748962
1687499582116936700,7.181936767578125,-0.18953371047973633,0.18457794189453125,0.4641682505607605
1687499582126992000,7.191991943359375,-0.4519078731536865,0.19805431365966797,0.27639609575271606
1687499582137047000,7.202047119140625,-0.6426115036010742,0.20824337005615234,-0.22698700428009033
1687499582147102200,7.212102294921875,-0.6188831329345703,0.17681026458740234,-0.6287931799888611
1687499582157157400,7.222157470703125,-0.48451924324035645,0.06984996795654297,-0.7340044379234314
1687499582167212500,7.232212646484375,-0.3660542964935303,0.011138916015625,-0.6831424236297607
1687499582177267700,7.242267822265625,-0.31928157806396484,0.03377723693847656,-0.4726189374923706
1687499582187323000,7.252322998046875,-0.2958815097808838,0.05647563934326172,-0.19354721903800964
1687499582197378000,7.2623779296875,-0.1949787139892578,0.09356975555419922,0.0732579231262207
1687499582207433200,7.27243310546875,-0.12129378318786621,0.03500843048095703,0.3113941252231598
1687499582217488400,7.28248828125,-0.11392760276794434,-0.01862335205078125,0.12348581850528717
1687499582227543300,7.292543212890625,0.06646251678466797,0.10416412353515625,-0.3904101252555847
1687499582237598500,7.302598388671875,0.509960412979126,0.27863597869873047,-0.484406977891922
1687499582247653600,7.312653564453125,1.3238561153411865,0.4753446578979492,0.18374218046665192
1687499582257708800,7.322708740234375,2.7310478687286377,0.840062141418457,1.6659237146377563
1687499582267764000,7.332763916015625,4.5429582595825195,1.263763427734375,4.211008548736572
1687499582277819100,7.342819091796875,6.109086990356445,1.623225212097168,7.854076385498047
1687499582287874300,7.352874267578125,7.340882301330566,2.207752227783203,12.695908546447754
1687499582297929500,7.362929443359375,8.650314331054688,3.2887144088745117,17.827194213867188
1687499582307984600,7.372984619140625,10.366032600402832,4.17099666595459,23.305225372314453
1687499582318039800,7.383039794921875,12.695734977722168,3.837047576904297,29.046245574951172
1687499582328095000,7.393094970703125,14.44339370727539,1.1152935028076172,35.68674087524414
1687499582338150100,7.403150146484375,14.88690185546875,-3.9409070014953613,42.71089553833008
1687499582348205300,7.413205322265625,15.077129364013672,-11.017881393432617,47.11069107055664
1687499582358260500,7.423260498046875,14.600951194763184,-21.700143814086914,47.160621643066406
1687499582368315600,7.433315673828125,13.155054092407227,-33.442222595214844,41.662845611572266
1687499582378370800,7.443370849609375,11.895011901855469,-43.9217529296875,33.09789276123047
1687499582388426000,7.453426025390625,10.659164428710938,-52.24917984008789,21.244178771972656
1687499582398481200,7.463481201171875,8.72968578338623,-56.747371673583984,7.190450668334961
1687499582408536300,7.473536376953125,3.3437116146087646,-56.029075622558594,-4.039685249328613
1687499582418591500,7.483591552734375,-5.350035190582275,-50.268863677978516,-12.505704879760742
1687499582428646700,7.493646728515625,-15.611331939697266,-42.823299407958984,-20.339397430419922
1687499582438701800,7.503701904296875,-23.282190322875977,-35.226627349853516,-24.938690185546875
1687499582448756700,7.5137568359375,-27.542098999023438,-29.12970542907715,-26.58063507080078
1687499582458812000,7.52381201171875,-29.70376205444336,-24.251598358154297,-26.942394256591797
1687499582468867000,7.5338671875,-28.27457618713379,-20.79277229309082,-26.308992385864258
1687499582478922200,7.543922119140625,-22.689237594604492,-19.526594161987305,-25.41424560546875
1687499582488977400,7.553977294921875,-15.83512020111084,-19.076692581176758,-24.29320526123047
1687499582499032600,7.564032470703125,-10.331072807312012,-19.15563201904297,-23.36035919189453
1687499582509087700,7.574087646484375,-6.795290946960449,-19.86387062072754,-22.144540786743164
1687499582519143000,7.584142822265625,-4.511635780334473,-21.129291534423828,-19.534629821777344
1687499582529198000,7.594197998046875,-2.7650716304779053,-23.256656646728516,-15.977017402648926
1687499582539253200,7.604253173828125,-1.2949244976043701,-25.934003829956055,-12.221656799316406
1687499582549308400,7.614308349609375,-0.6091351509094238,-28.96750259399414,-8.350992202758789
1687499582559363600,7.624363525390625,-1.4405252933502197,-31.74684715270996,-4.657768249511719
1687499582569418800,7.634418701171875,-3.908616065979004,-33.667884826660156,-0.6981401443481445
1687499582579474000,7.644473876953125,-6.243399620056152,-34.300662994384766,3.6736297607421875
1687499582589529000,7.654529052734375,-7.123607158660889,-33.671836853027344,7.628878593444824
1687499582599584300,7.664584228515625,-6.508503437042236,-32.450618743896484,11.052665710449219
1687499582609639400,7.674639404296875,-5.046269416809082,-30.766441345214844,14.062505722045898
1687499582619694600,7.684694580078125,-2.917477607727051,-28.422489166259766,15.922676086425781
1687499582629749800,7.694749755859375,0.499426007270813,-25.19598388671875,16.902713775634766
1687499582639805000,7.704804931640625,6.046370029449463,-21.529354095458984,18.530914306640625
1687499582649860000,7.714860107421875,12.337637901306152,-17.66375732421875,20.508228302001953
1687499582659915300,7.724915283203125,17.018596649169922,-13.036609649658203,21.340740203857422
1687499582669970200,7.73497021484375,18.493633270263672,-7.71560001373291,21.929506301879883
1687499582680025300,7.745025390625,17.048824310302734,-2.8654279708862305,22.371257781982422
1687499582690080500,7.75508056640625,13.47392749786377,-0.03730201721191406,22.290067672729492
1687499582700135700,7.7651357421875,9.464818000793457,1.2018671035766602,20.999797821044922
1687499582710190800,7.77519091796875,5.872079849243164,1.5352935791015625,17.991195678710938
1687499582720246000,7.78524609375,3.2851109504699707,1.6741952896118164,13.889667510986328
1687499582730301200,7.79530126953125,1.499809980392456,1.7788028717041016,9.77938461303711
1687499582740356400,7.8053564453125,0.12887883186340332,1.815810203552246,6.67582893371582
1687499582750411500,7.81541162109375,-0.6645593643188477,1.749551773071289,4.753691673278809
1687499582760466700,7.825466796875,-0.6511142253875732,1.5154733657836914,3.9451920986175537
1687499582770521900,7.83552197265625,0.1336369514465332,1.0393848419189453,3.305417060852051
1687499582780577000,7.845576904296875,1.0558850765228271,0.5506868362426758,2.415351629257202
1687499582790632200,7.855632080078125,1.7744979858398438,0.2697916030883789,1.4186354875564575
1687499582800687400,7.865687255859375,2.1196157932281494,0.16541194915771484,0.764224648475647
1687499582810742500,7.875742431640625,1.9378726482391357,0.05948066711425781,0.705512523651123
1687499582820797700,7.885797607421875,1.1994423866271973,-0.13214683532714844,0.88926100730896
1687499582830852900,7.895852783203125,0.3890502452850342,-0.06689167022705078,0.9894266128540039
1687499582840907800,7.90590771484375,-0.24593114852905273,0.09497356414794922,1.0955798625946045
1687499582850963000,7.915962890625,-0.4988229274749756,0.1212320327758789,0.8335646390914917
1687499582861018000,7.92601806640625,-0.4934840202331543,-0.0013551712036132812,0.10204420983791351
1687499582871073300,7.9360732421875,-0.3339195251464844,-0.1482105255126953,-0.8420345187187195
1687499582881128200,7.946128173828125,-0.10560059547424316,-0.08589839935302734,-1.6733646392822266
1687499582891183400,7.956183349609375,-0.03672218322753906,-0.06472969055175781,-2.218890905380249
1687499582901238500,7.966238525390625,-0.02266693115234375,-0.09008026123046875,-2.3906986713409424
1687499582911293700,7.976293701171875,-0.006977081298828125,-0.061885833740234375,-2.254389524459839
1687499582921348600,7.9863486328125,-0.05676150321960449,-0.05214977264404297,-1.8723844289779663
1687499582931403800,7.99640380859375,-0.09612679481506348,0.0015420913696289062,-1.2137203216552734
1687499582941459000,8.006458984375,-0.13013601303100586,0.07076358795166016,-0.5086624622344971
1687499582951514000,8.01651416015625,-0.0923161506652832,0.10338973999023438,0.1277039349079132
1687499582961569300,8.0265693359375,0.10768675804138184,0.17151260375976562,0.7403826713562012
1687499582971624200,8.036624267578125,0.41492605209350586,0.2934579849243164,0.9740909337997437
1687499582981679400,8.046679443359375,0.6565215587615967,0.24338340759277344,0.8860304951667786
1687499582991734500,8.056734619140625,0.7823407649993896,0.09742069244384766,0.5353168249130249
1687499583001789700,8.066789794921876,0.7418074607849121,0.0030717849731445312,0.039584338665008545
1687499583011844600,8.0768447265625,0.6405038833618164,0.055138587951660156,-0.5811627507209778
1687499583021899800,8.086899658203125,0.40099024772644043,0.08581161499023438,-1.0664210319519043
1687499583031955000,8.096954833984375,0.0789945125579834,-0.06245899200439453,-1.2738170623779297
1687499583042010000,8.107010009765625,-0.2713043689727783,-0.13066387176513672,-1.3169962167739868
1687499583052065000,8.11706494140625,-0.6299195289611816,-0.0795602798461914,-1.3244256973266602
1687499583062120200,8.1271201171875,-0.8505358695983887,-0.061369895935058594,-1.0626533031463623
1687499583072175400,8.13717529296875,-0.971493124961853,-0.12798786163330078,-0.5924075245857239
1687499583082230500,8.14723046875,-1.055781602859497,-0.08254528045654297,-0.14037799835205078
1687499583092285400,8.157285400390625,-1.0032988786697388,-0.006077766418457031,0.09482565522193909
1687499583102340600,8.167340576171876,-0.8841061592102051,-0.018564224243164062,0.05413714051246643
1687499583112395800,8.177395751953124,-0.7542412281036377,-0.11096382141113281,-0.26607200503349304
1687499583122451000,8.187450927734375,-0.5564091205596924,-0.10673141479492188,-0.714771032333374
1687499583132505900,8.197505859375,-0.2942049503326416,-0.13560867309570312,-1.038737416267395
1687499583142561000,8.20756103515625,-0.06050992012023926,-0.24120044708251953,-1.2495064735412598
1687499583152616200,8.2176162109375,0.14040517807006836,-0.213043212890625,-1.3615037202835083
1687499583162671400,8.22767138671875,0.39432740211486816,-0.11318111419677734,-1.2490314245224
1687499583172726300,8.237726318359375,0.7166845798492432,-0.07558155059814453,-0.9272468686103821
1687499583182781400,8.247781494140625,1.32230806350708,-0.009200096130371094,-0.34454354643821716
1687499583192836600,8.257836669921875,3.002439498901367,0.43007469177246094,1.4955075979232788
1687499583202891800,8.267891845703126,5.716729164123535,1.0888080596923828,5.167694568634033
1687499583212946700,8.27794677734375,8.769716262817383,1.5410661697387695,11.434009552001953
1687499583223001900,8.288001953125,11.544039726257324,1.756932258605957,21.348190307617188
1687499583233057000,8.29805712890625,12.991323471069336,1.2776603698730469,31.209962844848633
1687499583243112200,8.3081123046875,12.504664421081543,-0.7211742401123047,39.60544204711914
1687499583253167000,8.3181669921875,10.159164428710938,-3.897249698638916,47.18850326538086
1687499583263224800,8.328224853515625,8.665346145629883,-9.440524101257324,50.57893371582031
1687499583273278700,8.33827880859375,8.822187423706055,-18.941604614257812,49.24110794067383
1687499583283332600,8.34833251953125,9.922837257385254,-30.601211547851562,44.722232818603516
1687499583293386500,8.358386474609375,11.279479026794434,-42.184165954589844,38.52286148071289
1687499583303440400,8.3684404296875,11.946257591247559,-52.74648666381836,28.864145278930664
1687499583313494500,8.37849462890625,11.937932014465332,-59.9879150390625,16.620725631713867
1687499583323549000,8.388548828125,10.531553268432617,-62.26182174682617,2.5411596298217773
1687499583333603600,8.398603515625,6.642706871032715,-60.054473876953125,-10.646092414855957
1687499583343658200,8.408658203125,-1.3796536922454834,-55.30209732055664,-21.36764144897461
1687499583353713400,8.41871337890625,-13.579951286315918,-47.11140441894531,-30.373931884765625
1687499583363768600,8.4287685546875,-26.284162521362305,-36.27981948852539,-36.476768493652344
1687499583373824000,8.438823974609376,-34.43093490600586,-27.97001075744629,-38.65167999267578
1687499583383879700,8.448879638671874,-35.11819839477539,-22.735218048095703,-37.093570709228516
1687499583393935600,8.458935546875,-29.104421615600586,-20.084577560424805,-32.50569152832031
1687499583403991600,8.468991455078125,-19.56889533996582,-19.387836456298828,-26.46812629699707
1687499583414047500,8.479047607421874,-10.310267448425293,-18.482131958007812,-20.6676025390625
1687499583424103700,8.489103759765625,-2.4239654541015625,-17.897140502929688,-15.530241966247559
1687499583434159900,8.499159912109375,3.1794071197509766,-17.59945297241211,-10.966866493225098
1687499583444215800,8.5092158203125,5.8331522941589355,-16.74457550048828,-6.936933517456055
1687499583454271000,8.51927099609375,5.947022438049316,-15.917984008789062,-3.623159408569336
1687499583464326000,8.529325927734375,3.729675769805908,-15.81676959991455,-1.4857711791992188
1687499583474381000,8.539381103515625,0.006785154342651367,-15.864808082580566,-0.8965702056884766
1687499583484436200,8.549436279296875,-4.055749893188477,-16.140945434570312,-1.9592275619506836
1687499583494491400,8.559491455078126,-7.8031415939331055,-16.9035587310791,-3.379622459411621
1687499583504546300,8.56954638671875,-10.142922401428223,-17.979764938354492,-3.450864791870117
1687499583514601500,8.5796015625,-10.863866806030273,-19.253293991088867,-2.213038444519043
1687499583524656600,8.58965673828125,-10.334037780761719,-20.56891632080078,-0.789759635925293
1687499583534711800,8.5997119140625,-8.399020195007324,-21.755043029785156,1.1114163398742676
1687499583544766700,8.6097666015625,-5.324810981750488,-22.601072311401367,3.3492090702056885
1687499583554822000,8.61982177734375,-1.7619432210922241,-22.996448516845703,5.992306232452393
1687499583564877000,8.629876953125,1.7153900861740112,-22.85662841796875,8.616765975952148
1687499583574932200,8.63993212890625,5.041871070861816,-21.681072235107422,11.38257884979248
1687499583584987100,8.649987060546875,8.22945499420166,-19.234161376953125,15.059798240661621
1687499583595042300,8.660042236328126,11.130948066711426,-15.795745849609375,18.828969955444336
1687499583605097500,8.670097412109374,12.627433776855469,-11.608162879943848,20.600486755371094
1687499583615152600,8.680152587890625,12.17288589477539,-7.289417743682861,20.49515151977539
1687499583625207600,8.69020751953125,10.16600513458252,-3.7681236267089844,19.697925567626953
1687499583635262700,8.7002626953125,7.660273551940918,-1.4444727897644043,18.885509490966797
1687499583645318000,8.71031787109375,5.4865641593933105,-0.16495227813720703,17.81494903564453
1687499583655373000,8.720373046875,3.6628618240356445,0.5359563827514648,16.39065170288086
1687499583665428000,8.730427978515625,2.0867996215820312,0.7290382385253906,14.655500411987305
1687499583675483100,8.740483154296875,0.8001673221588135,0.49657154083251953,12.815350532531738
1687499583685538300,8.750538330078125,-0.2467484474182129,0.037886619567871094,10.638664245605469
1687499583695593500,8.760593505859376,-1.0928423404693604,-0.4849672317504883,8.305267333984375
1687499583705648400,8.7706484375,-1.641932725906372,-0.7673978805541992,6.0840864181518555
1687499583715703600,8.78070361328125,-1.9332001209259033,-0.6748971939086914,4.138401031494141
1687499583725758700,8.7907587890625,-1.894439935684204,-0.5538234710693359,2.6551449298858643
1687499583735814000,8.80081396484375,-1.735714316368103,-0.6997909545898438,1.8239083290100098
1687499583745868800,8.810868896484376,-1.3712174892425537,-1.1037158966064453,1.2682673931121826
1687499583755924000,8.820924072265624,-0.8662185668945312,-1.279465675354004,0.8100453615188599
1687499583765979100,8.830979248046875,-0.41440534591674805,-0.9704494476318359,0.5300565958023071
1687499583776034300,8.841034423828125,-0.14673542976379395,-0.685154914855957,0.3096170425415039
1687499583786089200,8.851089111328125,-0.1142280101776123,-0.6820745468139648,0.1413031816482544
1687499583796144400,8.861144287109376,-0.3401376008987427,-0.8785991668701172,0.014141201972961426
1687499583806199600,8.871199462890624,-0.7216534614562988,-1.1198711395263672,-0.18837511539459229
1687499583816254700,8.881254638671875,-0.9554738998413086,-1.2702569961547852,-0.83831787109375
1687499583826309600,8.8913095703125,-0.968765377998352,-1.0660219192504883,-1.6197340488433838
1687499583836364800,8.90136474609375,-0.8086755275726318,-0.6222019195556641,-2.262552499771118
1687499583846420000,8.911419921875,-0.47705113887786865,-0.36995887756347656,-2.562868595123291
1687499583856475100,8.92147509765625,0.014366388320922852,-0.3482646942138672,-2.603641986846924
1687499583866530000,8.931530029296875,0.5489633083343506,-0.2378854751586914,-2.6421167850494385
1687499583876585200,8.941585205078125,1.0734565258026123,-0.03572273254394531,-2.4981026649475098
1687499583886640400,8.951640380859375,1.4596400260925293,0.017530441284179688,-2.105775833129883
1687499583896695600,8.961695556640626,1.5480947494506836,-0.03568077087402344,-1.5904498100280762
1687499583906750500,8.97175048828125,1.2571675777435303,0.0007333755493164062,-1.0905299186706543
1687499583916805600,8.9818056640625,0.7936327457427979,0.1511068344116211,-0.5544900894165039
1687499583926860800,8.99186083984375,0.3009681701660156,0.2678489685058594,0.029710471630096436
1687499583936916000,9.001916015625,-0.0709526538848877,0.3609952926635742,0.41775014996528625
1687499583946971000,9.011970947265626,-0.3194277286529541,0.4215269088745117,0.491721510887146
1687499583957026000,9.022026123046874,-0.3264322280883789,0.5599794387817383,0.4394982159137726
1687499583967081200,9.032081298828125,-0.03212785720825195,0.6134414672851562,0.2593544125556946
1687499583977136400,9.042136474609375,0.32147645950317383,0.5187959671020508,-0.06186231970787048
1687499583987191300,9.05219140625,0.5522091388702393,0.49067115783691406,-0.4873555898666382
1687499583997246500,9.06224658203125,0.6947975158691406,0.495330810546875,-0.776085615158081
1687499584007301600,9.072301513671874,0.6441044807434082,0.44194889068603516,-0.7427499294281006
1687499584017356800,9.082356689453125,0.4936929941177368,0.49342918395996094,-0.47432637214660645
1687499584027411700,9.09241162109375,0.3465808629989624,0.5781755447387695,-0.07793831825256348
1687499584037467000,9.102466796875,0.2314901351928711,0.5622806549072266,0.24191933870315552
1687499584047522000,9.11252197265625,0.3007340431213379,0.6181726455688477,0.5892459750175476
1687499584057577200,9.1225771484375,0.7277958393096924,0.7070465087890625,1.1079845428466797
1687499584067632000,9.132632080078125,1.3322904109954834,0.7651052474975586,1.7535704374313354
1687499584077687300,9.142687255859375,2.0816330909729004,0.8861989974975586,2.880875587463379
1687499584087742500,9.152742431640625,2.9325685501098633,1.0103340148925781,5.020061492919922
1687499584097797600,9.162797607421876,3.9390320777893066,1.2337894439697266,8.550187110900879
1687499584107852500,9.1728525390625,4.828882217407227,0.9789962768554688,13.299074172973633
1687499584117907700,9.18290771484375,5.018184185028076,0.10311222076416016,18.537742614746094
1687499584127963000,9.192962890625,4.5300092697143555,-1.0625419616699219,24.968273162841797
1687499584138018000,9.20301806640625,3.3144726753234863,-3.4173765182495117,31.986764907836914
1687499584148073000,9.213072998046876,1.4064178466796875,-8.198565483093262,37.17758560180664
1687499584158128000,9.223128173828124,-0.72126305103302,-15.58305549621582,39.215248107910156
1687499584168183300,9.233183349609375,-2.9764404296875,-24.242368698120117,38.19782257080078
1687499584178238500,9.243238525390625,-5.334761619567871,-32.45897674560547,33.66819763183594
1687499584188293400,9.25329345703125,-7.4133524894714355,-39.86696243286133,27.341449737548828
1687499584198348500,9.2633486328125,-8.378116607666016,-45.08743667602539,18.22825813293457
1687499584208403700,9.27340380859375,-7.326086044311523,-47.153465270996094,7.868001461029053
1687499584218459000,9.283458984375,-4.530802249908447,-47.09885025024414,-3.8152551651000977
1687499584228513800,9.293513671875,-0.7008278369903564,-42.037010192871094,-15.12456226348877
1687499584238569000,9.30356884765625,0.45612311363220215,-33.22555923461914,-23.380495071411133
1687499584248624000,9.3136240234375,-2.189500093460083,-25.98905372619629,-27.75727081298828
1687499584258679300,9.32367919921875,-5.531573295593262,-20.434751510620117,-29.85321044921875
1687499584268734200,9.333734130859375,-8.31637954711914,-16.08133316040039,-31.107898712158203
1687499584278789400,9.343789306640625,-9.973515510559082,-13.329917907714844,-32.632667541503906
1687499584288844500,9.353844482421875,-10.419920921325684,-12.430988311767578,-31.676090240478516
1687499584298899700,9.363899658203126,-10.032958984375,-12.912400245666504,-28.528610229492188
1687499584308954600,9.37395458984375,-9.062051773071289,-14.267126083374023,-24.529939651489258
1687499584319009800,9.384009765625,-7.913111686706543,-15.314779281616211,-20.27489471435547
1687499584329065000,9.39406494140625,-6.3775787353515625,-16.29973602294922,-16.55547332763672
1687499584339120000,9.4041201171875,-4.550217628479004,-17.470890045166016,-13.814046859741211
1687499584349175000,9.414175048828126,-2.855410575866699,-18.786001205444336,-11.171686172485352
1687499584359230200,9.424230224609374,-1.3855403661727905,-20.532184600830078,-8.594893455505371
1687499584369285400,9.434285400390625,-0.6336053609848022,-22.466567993164062,-6.512134552001953
1687499584379340500,9.444340576171875,-0.6760622262954712,-23.984947204589844,-4.228191375732422
1687499584389395500,9.4543955078125,-1.1850073337554932,-25.25324058532715,-1.7009592056274414
1687499584399450600,9.46445068359375,-2.0847015380859375,-26.47479248046875,0.26044273376464844
1687499584409505800,9.474505859375,-3.2182388305664062,-27.248884201049805,1.7698674201965332
1687499584419561000,9.48456103515625,-4.252187728881836,-27.500967025756836,3.560943126678467
1687499584429615900,9.494615966796875,-4.37889289855957,-27.280364990234375,5.846775054931641
1687499584439671000,9.504671142578125,-3.8278913497924805,-26.59524154663086,8.858034133911133
1687499584449726200,9.514726318359376,-3.3776516914367676,-25.360136032104492,12.72610092163086
1687499584459781400,9.524781494140624,-2.9375767707824707,-22.406856536865234,17.90178871154785
1687499584469836300,9.534836181640625,-1.9592348337173462,-16.963672637939453,22.370365142822266
1687499584479891500,9.544891357421875,-0.47348523139953613,-10.378133773803711,23.774246215820312
1687499584489946600,9.554946533203125,1.2214717864990234,-5.2678446769714355,22.14552116394043
1687499584500001800,9.565001708984376,3.8741629123687744,-2.791482925415039,19.54769515991211
1687499584510056700,9.575056640625,6.206324577331543,-1.8948545455932617,17.790969848632812
1687499584520111900,9.58511181640625,7.033905506134033,-1.172544002532959,16.184629440307617
1687499584530167000,9.5951669921875,5.646905899047852,-0.4424886703491211,14.176896095275879
1687499584540222200,9.60522216796875,2.829176425933838,-0.13328838348388672,12.393634796142578
1687499584550277000,9.615277099609376,0.16212058067321777,-0.2892007827758789,10.680488586425781
1687499584560332300,9.625332275390624,-1.8423138856887817,-0.5185213088989258,8.399581909179688
1687499584570387500,9.635387451171875,-3.073859214782715,-0.33457469940185547,5.87009334564209
1687499584580442600,9.645442626953125,-3.576054096221924,0.3685941696166992,3.7076523303985596
1687499584590497500,9.65549755859375,-3.4199771881103516,0.9609508514404297,2.088940143585205
1687499584600552700,9.665552734375,-2.5950305461883545,0.8518056869506836,1.0876188278198242
1687499584610607900,9.67560791015625,-1.372865915298462,0.27793216705322266,1.0489912033081055
1687499584620663000,9.6856630859375,-0.17957186698913574,-0.0596923828125,1.515932321548462
1687499584630718000,9.695718017578125,0.5191049575805664,-0.06290531158447266,1.8219201564788818
1687499584640773000,9.705773193359375,0.7020524740219116,0.030725479125976562,1.806910753250122
1687499584650828300,9.715828369140626,0.5493515729904175,0.13484573364257812,1.6655328273773193
1687499584660883500,9.725883544921874,0.272540807723999,0.1592121124267578,1.8160784244537354
1687499584670938400,9.7359384765625,0.008237719535827637,0.08545112609863281,1.9925205707550049
1687499584680993500,9.74599365234375,-0.11862635612487793,-0.0419921875,1.8694202899932861
1687499584691048700,9.756048583984375,-0.1726914644241333,-0.1822500228881836,1.403916597366333
1687499584701103900,9.766103759765626,-0.12396395206451416,-0.23636722564697266,0.5546495914459229
1687499584711158800,9.77615869140625,-0.06412208080291748,-0.30130863189697266,-0.40125155448913574
1687499584721214000,9.7862138671875,0.15458250045776367,-0.3314971923828125,-1.2635726928710938
1687499584731269000,9.79626904296875,0.4055757522583008,-0.3259878158569336,-2.0180418491363525
1687499584741324300,9.80632421875,0.5143824815750122,-0.2752695083618164,-2.44740891456604
1687499584751379200,9.816379150390626,0.533565878868103,-0.17537689208984375,-2.4206480979919434
1687499584761434400,9.826434326171874,0.5768699645996094,-0.06117534637451172,-2.0554239749908447
1687499584771489500,9.836489501953125,0.5438319444656372,-0.0442352294921875,-1.5330605506896973
1687499584781544700,9.846544677734375,0.4481898546218872,-0.05891990661621094,-0.9900572299957275
1687499584791599600,9.856599609375,0.3684043884277344,-0.06290435791015625,-0.6160908937454224
1687499584801654800,9.86665478515625,0.4075915813446045,-0.03267478942871094,-0.5266319513320923
1687499584811710000,9.8767099609375,0.4799762964248657,-0.035284996032714844,-0.5443458557128906
1687499584821765000,9.88676513671875,0.41633737087249756,-0.11394214630126953,-0.4740748405456543
1687499584831820000,9.896820068359375,0.1462419033050537,-0.16325664520263672,-0.42279279232025146
1687499584841875200,9.906875244140625,-0.18329572677612305,-0.14452552795410156,-0.3737947940826416
1687499584851930400,9.916930419921876,-0.47034716606140137,-0.09566211700439453,-0.17465925216674805
1687499584861985500,9.926985595703124,-0.5943742394447327,-0.0071315765380859375,0.21002721786499023
1687499584872040400,9.93704052734375,-0.4233545660972595,0.2064971923828125,0.6689406633377075
1687499584882095600,9.947095703125,0.1546245813369751,0.4439096450805664,1.1083943843841553
1687499584892150800,9.95715087890625,0.7826089859008789,0.41272544860839844,1.3856925964355469
1687499584902206000,9.9672060546875,1.1666291952133179,0.34211063385009766,1.4677248001098633
1687499584912260900,9.9772607421875,1.3231446743011475,0.4949455261230469,1.7410444021224976
1687499584922316000,9.98731591796875,1.4385992288589478,0.755986213684082,2.3937196731567383
1687499584932371200,9.99737109375,1.7676582336425781,0.8902425765991211,3.36405348777771
1687499584942426000,10.007426025390625,2.281813144683838,1.0210771560668945,5.150246620178223
1687499584952481300,10.017481201171876,2.682570219039917,1.0749454498291016,7.335721969604492
1687499584962536200,10.0275361328125,3.035163164138794,1.1463518142700195,10.403314590454102
1687499584972591400,10.03759130859375,3.1794886589050293,0.8349494934082031,14.19686222076416
1687499584982646300,10.047646240234375,3.030034065246582,-0.162567138671875,18.046918869018555
1687499584992701400,10.057701416015625,2.487084150314331,-1.9671502113342285,22.096330642700195
1687499585002756400,10.06775634765625,1.693466067314148,-4.73298978805542,25.957990646362305
1687499585012811500,10.0778115234375,0.7290125489234924,-8.514063835144043,29.50450897216797
1687499585022866400,10.087866455078125,-0.33295589685440063,-13.723145484924316,31.765254974365234
1687499585032921600,10.097921630859375,-1.4340505599975586,-20.406036376953125,31.027854919433594
1687499585042976800,10.107976806640625,-2.8488681316375732,-26.610349655151367,28.859506607055664
1687499585053031700,10.11803173828125,-4.3550190925598145,-31.592601776123047,25.05207633972168
1687499585063086800,10.1280869140625,-5.677703380584717,-35.76442337036133,20.349842071533203
1687499585073141800,10.138141845703124,-6.206866264343262,-38.859642028808594,15.723270416259766
1687499585083197000,10.148197021484375,-4.784917831420898,-40.62449264526367,8.60525131225586
1687499585093251800,10.158251953125,-2.415350914001465,-41.41426467895508,-0.7289056777954102
1687499585103307000,10.16830712890625,0.033432960510253906,-38.868927001953125,-9.925325393676758
1687499585113362000,10.17836181640625,0.6473526954650879,-32.90598678588867,-17.683013916015625
1687499585123417000,10.1884169921875,-2.1191177368164062,-25.73804473876953,-23.10153579711914
1687499585133472000,10.198471923828125,-6.571072578430176,-20.575786590576172,-27.77584457397461
1687499585143527200,10.208527099609375,-10.21299934387207,-16.450857162475586,-31.669492721557617
1687499585153582300,10.218582275390625,-12.580009460449219,-13.044134140014648,-33.175567626953125
1687499585163637200,10.22863720703125,-13.222846984863281,-11.970129013061523,-32.59318161010742
1687499585173692400,10.2386923828125,-12.179300308227539,-13.431703567504883,-29.22918701171875
1687499585183747300,10.248747314453125,-10.253000259399414,-15.673908233642578,-22.76111602783203
1687499585193802500,10.258802490234375,-8.532978057861328,-17.461090087890625,-16.242155075073242
1687499585203857400,10.268857421875,-7.441098690032959,-18.481983184814453,-11.258028030395508
1687499585213912600,10.27891259765625,-6.617493629455566,-18.822895050048828,-7.578332901000977
1687499585223967500,10.288967529296874,-5.666495323181152,-18.89934730529785,-4.735505104064941
1687499585234022700,10.299022705078125,-4.531174659729004,-19.358381271362305,-2.6051292419433594
1687499585244077600,10.30907763671875,-3.535814046859741,-19.882488250732422,-1.3456344604492188
1687499585254132700,10.3191328125,-2.7874245643615723,-19.990129470825195,-0.556513786315918
1687499585264188000,10.32918798828125,-2.3830151557922363,-20.217876434326172,0.24309062957763672
1687499585274242800,10.339242919921874,-2.1361567974090576,-20.8638973236084,1.0308895111083984
1687499585284298000,10.349298095703125,-2.081395149230957,-21.669597625732422,1.8606715202331543
1687499585294353000,10.359352783203125,-2.40757417678833,-22.475419998168945,2.720651626586914
1687499585304408000,10.369407958984375,-3.0443873405456543,-22.996837615966797,3.6467840671539307
1687499585314463000,10.379462890625,-3.278297185897827,-23.071250915527344,4.703521728515625
1687499585324518100,10.38951806640625,-2.678948402404785,-22.634601593017578,6.041713714599609
1687499585334573000,10.399572998046875,-1.8555927276611328,-21.883094787597656,7.841347694396973
1687499585344628200,10.409628173828125,-1.0793756246566772,-20.700817108154297,10.86890697479248
1687499585354683400,10.419683349609375,-0.31289029121398926,-18.125782012939453,14.804283142089844
1687499585364738600,10.429738525390626,0.8114932775497437,-14.008782386779785,18.127382278442383
1687499585374793500,10.43979345703125,2.2673351764678955,-9.414341926574707,19.275985717773438
1687499585384848600,10.4498486328125,3.497952461242676,-5.665966510772705,17.390443801879883
1687499585394903800,10.45990380859375,4.210134029388428,-3.7101168632507324,14.0347318649292
1687499585404959000,10.469958984375,4.705421447753906,-2.354419231414795,12.351972579956055
1687499585415014000,10.480013916015626,5.236636161804199,-0.4898691177368164,12.796443939208984
1687499585425069000,10.490069091796874,5.426967620849609,0.6395454406738281,13.685144424438477
1687499585435124200,10.500124267578125,4.733957290649414,0.803044319152832,13.681854248046875
1687499585445179400,10.510179443359375,3.4198732376098633,0.8464841842651367,12.769615173339844
1687499585455234300,10.520234375,1.9744707345962524,1.052384376525879,10.933598518371582
1687499585465289500,10.53028955078125,0.7236675024032593,1.1993799209594727,8.756612777709961
1687499585475344600,10.5403447265625,0.0038334131240844727,1.0630788803100586,6.766845703125
1687499585485399800,10.55039990234375,-0.10108554363250732,0.6774225234985352,4.762619972229004
1687499585495454700,10.560454833984375,0.1995837688446045,0.27654552459716797,3.3659613132476807
1687499585505510000,10.570510009765625,0.45499908924102783,-0.14858150482177734,2.5040364265441895
1687499585515565000,10.58056494140625,0.5223679542541504,-0.39226818084716797,1.8720898628234863
1687499585525620200,10.5906201171875,0.3831874132156372,-0.36827945709228516,1.448817491531372
1687499585535675100,10.600675048828125,0.11471664905548096,-0.2917289733886719,1.1846897602081299
1687499585545730300,10.610730224609375,-0.17123496532440186,-0.2772541046142578,1.0211386680603027
1687499585555785500,10.620785400390625,-0.37450551986694336,-0.2239370346069336,0.8804993629455566
1687499585565840600,10.630840576171876,-0.4445567727088928,-0.1261606216430664,0.5935657024383545
1687499585575895600,10.6408955078125,-0.45670604705810547,-0.24140071868896484,0.2894155979156494
1687499585585950700,10.65095068359375,-0.2543279528617859,-0.25377464294433594,-0.17529916763305664
1687499585596006000,10.661005859375,-0.41939425468444824,-0.5121364593505859,-0.49329841136932373
1687499585606061000,10.67106103515625,-0.6788861155509949,-0.6951446533203125,-0.7853715419769287
1687499585616116000,10.681115966796876,-0.9491487741470337,-0.7547121047973633,-0.9724627733230591
1687499585626171100,10.691171142578124,-1.1641218662261963,-0.5855417251586914,-1.0106346607208252
1687499585636226300,10.701226318359375,-1.204422116279602,-0.40310001373291016,-0.8117232322692871
1687499585646281500,10.711281494140625,-1.0202301740646362,-0.1698293685913086,-0.4840559959411621
1687499585656336400,10.72133642578125,-0.6463775634765625,0.055785179138183594,-0.1432880163192749
1687499585666391600,10.7313916015625,-0.12500137090682983,-0.07629680633544922,0.20938587188720703
1687499585676446700,10.74144677734375,0.31225335597991943,-0.556971549987793,0.47257161140441895
1687499585686502000,10.751501953125,0.4592174291610718,-0.4633922576904297,-0.18664324283599854
1687499585696556800,10.761556884765625,0.49733883142471313,-0.20192623138427734,-0.8926280736923218
1687499585706612000,10.771612060546875,0.6064730882644653,-0.30257129669189453,-1.2231695652008057
1687499585716667100,10.781667236328126,0.6516901850700378,-0.6064138412475586,-1.449130892753601
1687499585726722300,10.791722412109374,0.19346898794174194,-0.6545276641845703,-1.1751904487609863
1687499585736777200,10.801777099609374,0.15754789113998413,0.1398143768310547,-0.8556311130523682
1687499585746832400,10.811832275390625,0.0087929368019104,0.4612617492675781,-0.5923720598220825
1687499585756887600,10.821887451171875,-0.16206416487693787,0.24400615692138672,-0.2188483476638794
1687499585766942700,10.831942626953126,-0.518740713596344,-0.1578359603881836,0.02310013771057129
1687499585776997600,10.84199755859375,-0.6613150835037231,-0.38105201721191406,-0.15881550312042236
1687499585787052800,10.852052734375,-0.6385835409164429,-0.2537384033203125,-0.5847746133804321
1687499585797108000,10.86210791015625,-0.6815469264984131,0.06566715240478516,-0.7911100387573242
1687499585807163000,10.872162841796875,-0.6532133221626282,0.17981910705566406,-0.5891501903533936
1687499585817218000,10.882218017578126,-0.5247358083724976,0.03122425079345703,-0.10477793216705322
1687499585827273000,10.89227294921875,-0.4608478546142578,-0.1557788848876953,0.4601322412490845
1687499585837328100,10.902328125,-0.49292927980422974,-0.28645801544189453,0.9286205768585205
1687499585847383000,10.912383056640625,-0.4246009886264801,-0.27559757232666016,1.1228586435317993
1687499585857438200,10.922438232421875,-0.06745144724845886,0.08680057525634766,0.9464410543441772
1687499585867496200,10.93249609375,0.5852162837982178,0.3567647933959961,0.4445894956588745
1687499585877548500,10.942548583984374,1.3752728700637817,0.22031879425048828,-0.03248119354248047
1687499585887600600,10.9526005859375,2.229184150695801,-0.07756996154785156,-0.30764639377593994
1687499585897653200,10.9626533203125,2.8808090686798096,-0.25951385498046875,-0.2910335063934326
1687499585907706000,10.9727060546875,3.025078058242798,-0.30204105377197266,0.3773055076599121
1687499585917759200,10.98275927734375,2.7700629234313965,-0.1772928237915039,1.6937838792800903
1687499585927812900,10.992812744140625,2.3723392486572266,-0.09178543090820312,3.123961925506592
1687499585937866800,11.00286669921875,2.047307014465332,-0.2039623260498047,4.767489433288574
1687499585947921400,11.01292138671875,1.8700543642044067,-0.5051679611206055,6.990087509155273
1687499585957976600,11.0229765625,2.0657424926757812,-0.7339878082275391,10.239562034606934
1687499585968032000,11.033031982421875,2.2907609939575195,-1.4212417602539062,14.416505813598633
1687499585978088000,11.043087890625,2.3434677124023438,-2.8280348777770996,18.3270206451416
1687499585988144000,11.05314404296875,2.288642644882202,-4.917576313018799,21.924495697021484
1687499585998200800,11.063200927734375,1.385751724243164,-8.260478973388672,25.397409439086914
1687499586008257800,11.0732578125,0.08353352546691895,-12.265644073486328,29.085481643676758
1687499586018314800,11.083314697265624,-1.8135266304016113,-17.692256927490234,31.950790405273438
1687499586028372000,11.0933720703125,-3.3342788219451904,-23.554529190063477,32.950721740722656
1687499586038429000,11.103428955078124,-6.75323486328125,-30.175018310546875,31.746402740478516
1687499586048484600,11.113484619140625,-10.34142780303955,-34.08335494995117,27.254926681518555
1687499586058539800,11.123539794921875,-10.695638656616211,-36.104923248291016,20.140886306762695
1687499586068594700,11.1335947265625,-7.244803428649902,-38.55402755737305,12.413307189941406
1687499586078649900,11.14364990234375,-1.0142765045166016,-40.94322967529297,2.2834997177124023
1687499586088704800,11.153704833984374,7.733062744140625,-41.469852447509766,-10.791194915771484
1687499586098760000,11.163760009765625,15.2694673538208,-39.212646484375,-22.497095108032227
1687499586108814800,11.17381494140625,16.44251823425293,-32.686431884765625,-29.276376724243164
1687499586118870000,11.1838701171875,8.893321990966797,-25.513858795166016,-32.301944732666016
1687499586128925000,11.193925048828126,-1.7193546295166016,-20.866390228271484,-35.23332595825195
1687499586138980000,11.20397998046875,-10.477262496948242,-16.73690414428711,-37.1180305480957
1687499586149035300,11.21403515625,-15.952848434448242,-13.733169555664062,-37.381309509277344
1687499586159090200,11.224090087890625,-17.730056762695312,-13.40330982208252,-34.460086822509766
1687499586169145300,11.234145263671875,-16.696575164794922,-15.02426528930664,-28.96646499633789
1687499586179200300,11.2442001953125,-13.743576049804688,-16.715221405029297,-22.94354248046875
1687499586189255400,11.25425537109375,-10.327713012695312,-18.55717658996582,-17.72177505493164
1687499586199310300,11.264310302734375,-7.797227382659912,-20.02804946899414,-13.49588394165039
1687499586209365500,11.274365478515625,-6.224912166595459,-20.922748565673828,-10.197187423706055
1687499586219420400,11.28442041015625,-5.440678596496582,-21.772151947021484,-7.462236404418945
1687499586229475600,11.2944755859375,-5.112617492675781,-22.993175506591797,-4.766745567321777
1687499586239530500,11.304530517578126,-5.14241361618042,-24.380046844482422,-1.6559820175170898
1687499586249585700,11.314585693359374,-5.425636291503906,-25.44143295288086,1.6377482414245605
1687499586259640800,11.324640869140625,-5.934118270874023,-26.12641716003418,4.506115913391113
1687499586269695700,11.33469580078125,-6.423479080200195,-26.18890380859375,7.0044264793396
1687499586279751000,11.3447509765625,-6.909584045410156,-25.7431640625,9.133172988891602
1687499586289805800,11.354805908203126,-6.885777950286865,-24.900007247924805,11.398244857788086
1687499586299861000,11.364861083984374,-5.80910587310791,-23.36200714111328,13.376483917236328
1687499586309916000,11.374916015625,-4.094576358795166,-20.70244026184082,14.88602066040039
1687499586319971000,11.38497119140625,-2.074702024459839,-17.208341598510742,15.902644157409668
1687499586330026000,11.39502587890625,0.790367603302002,-13.171324729919434,16.547449111938477
1687499586340081200,11.4050810546875,5.155220985412598,-9.382143020629883,17.033117294311523
1687499586350136000,11.415135986328124,10.490655899047852,-6.9603166580200195,17.392803192138672
1687499586360191200,11.425191162109375,15.110523223876953,-4.713009834289551,16.701683044433594
1687499586370246400,11.435246337890625,17.610261917114258,-2.71572208404541,14.750923156738281
1687499586380301300,11.44530126953125,16.121597290039062,-0.8527898788452148,12.414690017700195
1687499586390356500,11.4553564453125,11.224296569824219,0.4592866897583008,11.104972839355469
1687499586400411400,11.465411376953124,5.80311393737793,0.8553066253662109,11.015296936035156
1687499586410466600,11.475466552734375,1.65275239944458,0.6482658386230469,10.702377319335938
1687499586420521500,11.485521484375,-0.9465869665145874,0.3978261947631836,9.61886215209961
1687499586430576600,11.49557666015625,-2.2127833366394043,0.40794849395751953,7.455053329467773
1687499586440631600,11.505631591796876,-2.5960562229156494,0.6029872894287109,5.0029401779174805
1687499586450686700,11.515686767578124,-2.3253672122955322,0.8541717529296875,2.6911985874176025
1687499586460741600,11.52574169921875,-1.6482226848602295,0.8689050674438477,0.8464391231536865
1687499586470796800,11.535796875,-0.7819956541061401,0.4947643280029297,-0.1262667179107666
1687499586480852000,11.54585205078125,0.012262105941772461,-0.036431312561035156,-0.311151385307312
1687499586490907000,11.555906982421876,0.4408421516418457,-0.4466419219970703,-0.01673269271850586
1687499586500962000,11.565962158203124,0.2419583797454834,-0.633544921875,0.44582653045654297
1687499586511017000,11.576016845703125,-0.40122735500335693,-0.6503152847290039,0.9339982271194458
1687499586521072000,11.586072021484375,-0.970179557800293,-0.49120140075683594,0.9157339334487915
1687499586531127000,11.596126953125,-1.1991914510726929,-0.24548053741455078,0.4714747667312622
1687499586541182200,11.60618212890625,-1.2561137676239014,-0.20838451385498047,0.12678301334381104
1687499586551237000,11.616237060546876,-1.1018744707107544,-0.3744029998779297,-0.2072509527206421
1687499586561292300,11.626292236328124,-0.6338585615158081,-0.3516721725463867,-0.4461493492126465
1687499586571347500,11.636347412109375,-0.11320710182189941,-0.2418384552001953,-0.3588416576385498
1687499586581402400,11.64640234375,0.24195170402526855,-0.26180267333984375,-0.11023139953613281
1687499586591457500,11.65645751953125,0.38523006439208984,-0.3739967346191406,-0.015792369842529297
1687499586601512400,11.666512451171876,0.34248197078704834,-0.4530467987060547,-0.4258534908294678
1687499586611567600,11.676567626953124,0.17521798610687256,-0.37775421142578125,-0.997244119644165
1687499586621622500,11.68662255859375,-0.00015223026275634766,-0.19034194946289062,-1.3147289752960205
1687499586631677700,11.696677734375,-0.019411206245422363,-0.09147167205810547,-1.4120866060256958
1687499586641732600,11.706732666015625,0.04858899116516113,-0.07179069519042969,-1.3241705894470215
1687499586651787800,11.716787841796876,0.19947600364685059,-0.036253929138183594,-1.0431303977966309
1687499586661842700,11.7268427734375,0.334928035736084,-0.0718526840209961,-0.6892094612121582
1687499586671897900,11.73689794921875,0.4433690309524536,-0.06922435760498047,-0.6812764406204224
1687499586681953000,11.746953125,0.48401713371276855,-0.057247161865234375,-0.8294079899787903
1687499586692008000,11.757008056640625,0.35803377628326416,-0.17920684814453125,-0.6909905076026917
1687499586702063000,11.76706298828125,0.17572832107543945,-0.20066356658935547,-0.5010125637054443
1687499586712118000,11.777117919921874,-0.016048669815063477,-0.07844257354736328,-0.5482065081596375
1687499586722173200,11.787173095703125,-0.14273345470428467,-0.06065654754638672,-0.8441053628921509
1687499586732228000,11.79722802734375,-0.24010086059570312,-0.05571556091308594,-0.940912663936615
1687499586742283300,11.807283203125,-0.22260761260986328,-0.03014087677001953,-0.8285592794418335
1687499586752338200,11.817338134765626,-0.25232064723968506,0.07798194885253906,-0.4011892080307007
1687499586762393300,11.827393310546874,0.01077735424041748,0.32065677642822266,0.3959465026855469
1687499586772448300,11.8374482421875,0.6368542909622192,0.6105279922485352,1.6867070198059082
1687499586782503400,11.84750341796875,1.3179726600646973,0.7875299453735352,3.586338758468628
1687499586792558600,11.85755859375,1.8177876472473145,0.8966398239135742,6.512733459472656
1687499586802613500,11.867613525390626,2.0059728622436523,0.9007682800292969,10.354634284973145
1687499586812668700,11.877668701171874,1.784109115600586,0.5922670364379883,13.890071868896484
1687499586822723600,11.8877236328125,1.4584801197052002,0.0166473388671875,17.406465530395508
1687499586832778800,11.89777880859375,1.3594160079956055,-0.9563980102539062,20.73381233215332
1687499586842833700,11.907833740234375,1.134040117263794,-2.8776955604553223,23.180713653564453
1687499586852888800,11.917888916015626,0.43091481924057007,-5.5173139572143555,24.501110076904297
1687499586862943700,11.92794384765625,-0.5056713819503784,-7.7441205978393555,25.935291290283203
1687499586872999000,11.9379990234375,-1.3720319271087646,-10.246831893920898,27.609756469726562
1687499586883053800,11.9480537109375,-1.7442458868026733,-13.808238983154297,27.978559494018555
1687499586893109000,11.95810888671875,-1.0271611213684082,-18.12343406677246,27.541921615600586
1687499586903164200,11.9681640625,1.2408357858657837,-22.922439575195312,24.450103759765625
1687499586913219000,11.978218994140626,4.524683952331543,-27.806198120117188,18.349960327148438
1687499586923274200,11.988274169921874,7.400903701782227,-31.713069915771484,12.099289894104004
1687499586933329200,11.9983291015625,9.3812255859375,-35.15558624267578,5.67750358581543
1687499586943384300,12.00838427734375,10.156198501586914,-37.48779296875,-0.878413200378418
1687499586953439200,12.018439208984375,8.596582412719727,-37.364925384521484,-6.514812469482422
1687499586963494400,12.028494384765626,3.8995375633239746,-35.009071350097656,-11.099108695983887
1687499586973549300,12.03854931640625,-3.0059990882873535,-31.76512908935547,-16.117900848388672
1687499586983604500,12.0486044921875,-10.723272323608398,-28.452165603637695,-22.160066604614258
1687499586993659400,12.058659423828125,-18.33079719543457,-24.042781829833984,-27.000656127929688
1687499587003714600,12.068714599609375,-24.41501808166504,-19.383787155151367,-29.856294631958008
1687499587013769700,12.078769775390626,-27.250595092773438,-16.717987060546875,-30.767024993896484
1687499587023824600,12.08882470703125,-26.385894775390625,-15.921238899230957,-29.49378204345703
1687499587033879800,12.0988798828125,-22.015396118164062,-16.473482131958008,-26.542156219482422
1687499587043934700,12.108934814453125,-15.5314359664917,-17.952274322509766,-22.69475555419922
1687499587053990000,12.118989990234375,-9.053304672241211,-19.748905181884766,-18.913387298583984
1687499587064044800,12.129044921875,-3.994349718093872,-21.527729034423828,-15.29766845703125
1687499587074100000,12.139099853515624,-0.5879678726196289,-23.050060272216797,-11.865768432617188
1687499587084155000,12.14915478515625,1.8621882200241089,-24.454654693603516,-8.614355087280273
1687499587094210000,12.1592099609375,3.2068517208099365,-25.86989402770996,-5.618202209472656
1687499587104265200,12.16926513671875,2.9285824298858643,-27.10365867614746,-2.6366958618164062
1687499587114320100,12.179320068359376,1.3445746898651123,-28.273212432861328,0.14414405822753906
1687499587124375300,12.189375244140624,-0.8368088006973267,-29.151811599731445,2.5020127296447754
1687499587134430200,12.19943017578125,-2.826517343521118,-29.797237396240234,4.450531959533691
1687499587144485400,12.2094853515625,-3.872274160385132,-30.080841064453125,5.962338447570801
1687499587154540300,12.219540283203125,-3.7291672229766846,-29.72036361694336,7.916830062866211
1687499587164595500,12.229595458984376,-2.5460593700408936,-28.589805603027344,11.164194107055664
1687499587174650400,12.239650390625,-1.0624938011169434,-26.184619903564453,16.15334129333496
1687499587184705500,12.24970556640625,0.9860780239105225,-21.610206604003906,21.85333251953125
1687499587194760400,12.259760498046875,3.7177226543426514,-15.166467666625977,26.806516647338867
1687499587204815600,12.269815673828125,6.819894790649414,-9.113869667053223,28.21099281311035
1687499587214870800,12.279870849609376,9.807194709777832,-4.923992156982422,26.27294158935547
1687499587224925700,12.28992578125,11.594944953918457,-1.9768457412719727,22.649085998535156
1687499587234980900,12.29998095703125,11.62158489227295,-0.23314571380615234,18.854904174804688
1687499587245035800,12.310035888671875,10.073266983032227,0.34345149993896484,16.177410125732422
1687499587255091000,12.320091064453125,7.268136978149414,0.26723670959472656,14.452156066894531
1687499587265145900,12.330145751953125,4.143441200256348,-0.09201812744140625,12.485127449035645
1687499587275201000,12.340200927734376,1.682828664779663,-0.26786136627197266,9.509552001953125
1687499587285256000,12.350255859375,-0.038880109786987305,0.09753131866455078,5.991446495056152
1687499587295311000,12.36031103515625,-1.1290165185928345,0.6078815460205078,2.736316680908203
1687499587305366000,12.370365966796875,-1.5655604600906372,0.9541149139404297,0.44410502910614014
1687499587315421200,12.380421142578125,-1.5906929969787598,0.8320980072021484,-0.6115028858184814
1687499587325476400,12.390476318359376,-1.2812013626098633,0.14450836181640625,-0.2591726779937744
1687499587335531300,12.40053125,-0.8369040489196777,-0.5157899856567383,0.6698617935180664
1687499587345586400,12.41058642578125,-0.5560195446014404,-0.5186710357666016,1.41144859790802
1687499587355641300,12.420641357421875,-0.48068952560424805,-0.2648048400878906,1.6816420555114746
1687499587365696500,12.430696533203125,-0.5612454414367676,-0.08974552154541016,1.6172642707824707
1687499587375751400,12.44075146484375,-0.6124782562255859,-0.10289478302001953,1.4554208517074585
1687499587385806600,12.450806640625,-0.5790867805480957,-0.2508840560913086,1.2089359760284424
1687499587395861500,12.460861572265625,-0.5098538398742676,-0.47087955474853516,0.8411396741867065
1687499587405916700,12.470916748046875,-0.43982911109924316,-0.608616828918457,0.29655683040618896
1687499587415971600,12.4809716796875,-0.3949158191680908,-0.5575952529907227,-0.39288896322250366
1687499587426026800,12.49102685546875,-0.28798699378967285,-0.3701915740966797,-0.85743248462677
1687499587436082000,12.50108203125,-0.18836641311645508,-0.32871532440185547,-1.0376628637313843
1687499587446136800,12.51113671875,-0.16190600395202637,-0.39009666442871094,-1.0288479328155518
1687499587456192000,12.52119189453125,-0.23225951194763184,-0.38720226287841797,-1.019068717956543
1687499587466247000,12.531246826171875,-0.2798118591308594,-0.3109169006347656,-1.2769646644592285
1687499587476302000,12.541302001953126,-0.1964554786682129,-0.14205551147460938,-1.5948193073272705
1687499587486357000,12.55135693359375,-0.09380745887756348,-0.05260467529296875,-1.5930978059768677
1687499587496412200,12.561412109375,0.07242774963378906,0.014355659484863281,-1.2948198318481445
1687499587506467000,12.571467041015625,0.2994410991668701,0.03423309326171875,-0.8971998691558838
1687499587516522200,12.581522216796875,0.5834593772888184,0.0735769271850586,-0.6115490198135376
1687499587526577200,12.5915771484375,0.8108406066894531,0.1415090560913086,-0.381733238697052
1687499587536632300,12.60163232421875,0.8933939933776855,0.19905662536621094,-0.08056318759918213
1687499587546687500,12.6116875,0.7853045463562012,0.29355812072753906,0.1599440574645996
1687499587556742400,12.621742431640625,0.5049765110015869,0.3678569793701172,0.23147791624069214
1687499587566797600,12.631797607421875,0.16814303398132324,0.3513174057006836,0.23608946800231934
1687499587576852500,12.6418525390625,-0.04657864570617676,0.4166908264160156,0.34851527214050293
1687499587586909700,12.65190966796875,-0.12641072273254395,0.5304183959960938,0.614295244216919
1687499587596963300,12.66196337890625,-0.014148473739624023,0.6490459442138672,0.9123809337615967
1687499587607017000,12.672016845703125,0.40090298652648926,0.791172981262207,1.1489521265029907
1687499587617070600,12.682070556640625,1.1179792881011963,0.965275764465332,1.0876754522323608
1687499587627124500,12.69212451171875,1.9825365543365479,0.9737787246704102,0.9523434042930603
1687499587637178600,12.7021787109375,2.921103000640869,1.020960807800293,0.8855953812599182
1687499587647232800,12.712232666015625,3.668503999710083,1.1722955703735352,0.9697549343109131
