time,seconds_elapsed,z,y,x
1687499575057642500,0.122642578125,-0.056192658841609955,0.12543480098247528,-0.12210584431886673
1687499575067531500,0.132531494140625,-0.14567480981349945,0.04980107396841049,-0.22863221168518066
1687499575077458400,0.14245849609375,-0.22024326026439667,-0.06631266325712204,-0.32450592517852783
1687499575087427000,0.152427001953125,-0.251135915517807,-0.15153375267982483,-0.3969438672065735
1687499575097438700,0.162438720703125,-0.280963271856308,-0.14940322935581207,-0.45553335547447205
1687499575107494000,0.172493896484375,-0.2894853949546814,-0.14514216780662537,-0.46512073278427124
1687499575117590800,0.1825908203125,-0.32463908195495605,-0.13768532872200012,-0.4768386483192444
1687499575127725800,0.192725830078125,-0.37577176094055176,-0.12809795141220093,-0.4949481189250946
1687499575137894400,0.202894287109375,-0.4311654567718506,-0.09081372618675232,-0.5130575895309448
1687499575148090600,0.213090576171875,-0.47590652108192444,-0.05139897018671036,-0.5290365815162659
1687499575158290700,0.223290771484375,-0.5078644156455994,-0.005592633970081806,-0.5439502596855164
1687499575168490800,0.23349072265625,-0.517451822757721,0.025300011038780212,-0.54927659034729
1687499575178690600,0.243690673828125,-0.4961465299129486,0.03169159218668938,-0.5524723529815674
1687499575188890600,0.253890625,-0.448209673166275,0.028495801612734795,-0.5386239290237427
1687499575199030300,0.2640302734375,-0.391750693321228,0.016777902841567993,-0.503470242023468
1687499575209085400,0.27408544921875,-0.3278348743915558,0.007190529722720385,-0.45127230882644653
1687499575219140400,0.284140380859375,-0.2660495936870575,0.05299686640501022,-0.3777691125869751
1687499575229195300,0.2941953125,-0.20532956719398499,0.08815056830644608,-0.2925480306148529
1687499575239250400,0.30425048828125,-0.15100112557411194,0.12756532430648804,-0.2083922028541565
1687499575249305300,0.314305419921875,-0.10412952303886414,0.18402428925037384,-0.13382373750209808
1687499575259360300,0.3243603515625,-0.0774979293346405,0.25007063150405884,-0.07949529588222504
1687499575269415400,0.33441552734375,-0.06578002870082855,0.3022685647010803,-0.035819489508867264
1687499575279470300,0.34447021484375,-0.060453712940216064,0.34274858236312866,0.0035952648613601923
1687499575289525200,0.354525146484375,-0.04767054691910744,0.3683148920536041,0.045140545815229416
1687499575299580400,0.364580322265625,-0.02636527456343174,0.40986019372940063,0.1069258376955986
1687499575309635300,0.37463525390625,-0.0018642114009708166,0.4908202290534973,0.20279955863952637
1687499575319690500,0.3846904296875,0.023702116683125496,0.5664539337158203,0.296542763710022
1687499575329745400,0.394745361328125,0.0492684431374073,0.6154560446739197,0.3743070065975189
1687499575339800300,0.40480029296875,0.09507478028535843,0.6644582152366638,0.43289652466773987
1687499575349855500,0.41485546875,0.1291632205247879,0.6996119022369385,0.4691154658794403
1687499575359910400,0.424910400390625,0.1483379602432251,0.5994771122932434,0.5127912759780884
1687499575369965300,0.43496533203125,0.1621863842010498,0.05512739345431328,0.5948165655136108
1687499575380020500,0.4450205078125,0.16538217663764954,-0.5243760347366333,0.5532712936401367
1687499575390075400,0.455075439453125,0.16431692242622375,-0.8034750819206238,0.38709017634391785
1687499575400130300,0.46513037109375,0.18242639303207397,-0.915327787399292,0.2059953510761261
1687499575410185500,0.475185546875,0.22716747224330902,-0.885500431060791,0.04833633825182915
1687499575420240400,0.485240478515625,0.25379905104637146,-0.7374287843704224,-0.03688475489616394
1687499575430295300,0.49529541015625,0.24634221196174622,-0.4966791868209839,-0.04114580899477005
1687499575440350500,0.5053505859375,0.24314641952514648,-0.30493173003196716,-0.018775271251797676
1687499575450405400,0.5154052734375,0.2527337968349457,-0.27723485231399536,-0.018775271251797676
1687499575460460300,0.525460205078125,0.2751043438911438,-0.35393384099006653,-0.05819002538919449
1687499575470515500,0.535515380859375,0.25912538170814514,-0.4018706977367401,-0.05392897129058838
1687499575480570400,0.5455703125,0.1952095627784729,-0.4870918095111847,0.024900536984205246
1687499575490625300,0.555625244140625,0.12703268229961395,-0.5787044763565063,0.12503531575202942
1687499575500680400,0.565680419921875,0.08761793375015259,-0.6117276549339294,0.22730062901973724
1687499575510735400,0.5757353515625,0.10998847335577011,-0.5371592044830322,0.30719539523124695
1687499575520790300,0.585790283203125,0.15899059176445007,-0.45193809270858765,0.342349112033844
1687499575530845400,0.595845458984375,0.19627483189105988,-0.3699128031730652,0.3412838280200958
1687499575540900400,0.605900390625,0.20160114765167236,-0.24847275018692017,0.31571751832962036
1687499575550955500,0.61595556640625,0.16431692242622375,-0.1344895362854004,0.28269433975219727
1687499575561010400,0.626010498046875,0.08974846452474594,-0.05779055133461952,0.23156169056892395
1687499575571065600,0.636065673828125,0.026897907257080078,-0.02157158963382244,0.16231954097747803
1687499575581120500,0.64612060546875,-0.00612526573240757,-0.011984216049313545,0.13675321638584137
1687499575591175700,0.65617578125,-0.014647374860942364,0.00612526573240757,0.15592797100543976
1687499575601230800,0.66623095703125,0.0002663159102667123,0.05193160101771355,0.19427745044231415
1687499575611285800,0.67628564453125,0.03328948840498924,0.07004108279943466,0.21771325170993805
1687499575621341000,0.6863408203125,0.0684431865811348,0.0679105594754219,0.2251701056957245
1687499575631395800,0.696395751953125,0.1153147891163826,0.0679105594754219,0.19960378110408783
1687499575641451000,0.706450927734375,0.15153375267982483,0.0540621280670166,0.16658060252666473
1687499575651506000,0.716505859375,0.16964323818683624,0.030626330524683,0.14740586280822754
1687499575661561000,0.72656103515625,0.171773761510849,0.009321057237684727,0.14740586280822754
1687499575671616000,0.736615966796875,0.1579253375530243,-0.006657897960394621,0.14740586280822754
1687499575681671200,0.746671142578125,0.12383689731359482,-0.0002663159102667123,0.15166690945625305
1687499575691726300,0.756726318359375,0.08122635632753372,0.05086633935570717,0.17829850316047668
1687499575701781200,0.76678125,0.032224226742982864,0.08282424509525299,0.2102564126253128
1687499575711836400,0.77683642578125,-0.013582111336290836,0.0966726765036583,0.2241048365831375
1687499575721891300,0.786891357421875,-0.04767054691910744,0.11371689289808273,0.20812588930130005
1687499575731946500,0.796946533203125,-0.0636495053768158,0.11691268533468246,0.17084164917469025
1687499575742001400,0.80700146484375,-0.07110634446144104,0.10199899226427078,0.13249216973781586
1687499575752056600,0.817056640625,-0.07004108279943466,0.09028109163045883,0.11331742256879807
1687499575762111500,0.827111572265625,-0.0636495053768158,0.08602003753185272,0.11544794589281082
1687499575772166700,0.837166748046875,-0.056192658841609955,0.110521100461483,0.12823110818862915
1687499575782221600,0.8472216796875,-0.056192658841609955,0.1435442715883255,0.13675321638584137
1687499575792276700,0.85727685546875,-0.05193160101771355,0.16804534196853638,0.13675321638584137
1687499575802332000,0.867331787109375,-0.03488738462328911,0.1808284968137741,0.12503531575202942
1687499575812386800,0.87738671875,-0.010386320762336254,0.1808284968137741,0.11225215345621109
1687499575822442000,0.88744189453125,0.019441060721874237,0.1478053331375122,0.10053425282239914
1687499575832497000,0.897496826171875,0.060986343771219254,0.11797794699668884,0.09840372949838638
1687499575842552000,0.907552001953125,0.11318425834178925,0.08069372177124023,0.11864373832941055
1687499575852607000,0.91760693359375,0.15899059176445007,0.016777902841567993,0.15592797100543976
1687499575862662100,0.927662109375,0.1898832470178604,-0.05992107838392258,0.18575534224510193
1687499575872717000,0.937717041015625,0.2047969400882721,-0.09400951862335205,0.1964079886674881
1687499575882772200,0.947772216796875,0.20160114765167236,-0.09933583438396454,0.20279955863952637
1687499575892827100,0.9578271484375,0.18029586970806122,-0.0822916179895401,0.21238693594932556
1687499575902882300,0.96788232421875,0.14407691359519958,-0.05352949723601341,0.2102564126253128
1687499575912937500,0.9779375,0.10146636515855789,-0.0002663159102667123,0.18469008803367615
1687499575922992400,0.987992431640625,0.0684431865811348,0.04660528525710106,0.15273217856884003
1687499575933047600,0.998047607421875,0.0492684431374073,0.07430213689804077,0.13355742394924164
1687499575943102500,1.0081025390625,0.04287686198949814,0.07430213689804077,0.12397005409002304
1687499575953157600,1.01815771484375,0.0492684431374073,0.07962846010923386,0.11118689179420471
1687499575963212500,1.028212646484375,0.07590003311634064,0.10519478470087051,0.10479531437158585
1687499575973267700,1.038267822265625,0.11957584321498871,0.13182637095451355,0.1165132075548172
1687499575983322600,1.048322509765625,0.17390428483486176,0.11584742367267609,0.13675321638584137
1687499575993377800,1.058377685546875,0.23036326467990875,0.06897582113742828,0.1591237634420395
1687499576003432700,1.0684326171875,0.28149592876434326,0.013582111336290836,0.18575534224510193
1687499576013487900,1.07848779296875,0.31025803089141846,-0.03861580789089203,0.22197431325912476
1687499576023543000,1.08854296875,0.3134538233280182,-0.0588558167219162,0.2635195851325989
1687499576033598000,1.098597900390625,0.3070622384548187,-0.017310533672571182,0.3082606792449951
1687499576043653000,1.108653076171875,0.30599698424339294,0.0540621280670166,0.35832804441452026
1687499576053708000,1.1187080078125,0.31984540820121765,0.04234423115849495,0.4360923171043396
1687499576063763200,1.12876318359375,0.34434646368026733,-0.06311687082052231,0.5522060394287109
1687499576073818000,1.138818115234375,0.3645864725112915,-0.19627483189105988,0.6970819234848022
1687499576083873300,1.148873291015625,0.3560643792152405,-0.3741738498210907,0.8568714261054993
1687499576093928200,1.15892822265625,0.3028011918067932,-0.6639255881309509,1.0464884042739868
1687499576103983400,1.1689833984375,0.1771000772714615,-1.0591384172439575,1.3373053073883057
1687499576114038300,1.179038330078125,-0.05832318589091301,-1.4660691022872925,1.7634108066558838
1687499576124093400,1.189093505859375,-0.4641886353492737,-1.8122798204421997,2.2449100017547607
1687499576134148600,1.199148681640625,-1.1342394351959229,-2.15529465675354,2.713625907897949
1687499576144203500,1.20920361328125,-2.19417667388916,-2.512157917022705,3.177015542984009
1687499576154258700,1.2192587890625,-3.8250954151153564,-2.8519771099090576,3.5210957527160645
1687499576164313600,1.229313720703125,-6.073866844177246,-3.1949920654296875,3.559445381164551
1687499576174368800,1.23936865234375,-8.6795015335083,-3.2589077949523926,3.126948356628418
1687499576184423700,1.249423583984375,-11.360770225524902,-2.9009792804718018,2.1522319316864014
1687499576194478800,1.259478759765625,-13.952556610107422,-2.2873873710632324,0.7418229579925537
1687499576204533800,1.26953369140625,-16.464448928833008,-1.178447961807251,-1.0989526510238647
1687499576214589000,1.2795888671875,-18.24663543701172,0.0540621280670166,-3.4798169136047363
1687499576224644000,1.28964404296875,-19.2032413482666,0.7454182505607605,-5.615670204162598
1687499576234699000,1.299698974609375,-19.459970474243164,1.6168038845062256,-6.737392902374268
1687499576244754200,1.309754150390625,-18.860225677490234,2.170741081237793,-6.440184593200684
1687499576254809000,1.31980908203125,-16.798940658569336,2.4157516956329346,-3.857985496520996
1687499576264864300,1.3298642578125,-13.384771347045898,2.1835241317749023,0.24114905297756195
1687499576274919200,1.339919189453125,-9.089628219604492,1.3675322532653809,3.5210957527160645
1687499576284974300,1.349974365234375,-4.220308303833008,0.5376918315887451,5.015660762786865
1687499576295029200,1.360029296875,0.1952095627784729,0.14567480981349945,5.241496562957764
1687499576305084400,1.37008447265625,3.708449125289917,-0.04181159660220146,4.5575971603393555
1687499576315139600,1.3801396484375,6.461090087890625,-0.0354200154542923,3.146122932434082
1687499576325194500,1.390194580078125,8.575638771057129,-0.026897907257080078,1.5684674978256226
1687499576335249700,1.400249755859375,10.041440963745117,-0.0918789878487587,0.34980595111846924
1687499576345304600,1.4103046875,11.077942848205566,0.04127896577119827,-0.4203796684741974
1687499576355359700,1.42035986328125,11.838541030883789,0.41944757103919983,-0.9231840968132019
1687499576365414700,1.43041455078125,12.32856273651123,0.790159285068512,-1.2566115856170654
1687499576375469800,1.4404697265625,12.558659553527832,1.078845739364624,-1.5357106924057007
1687499576385524700,1.450524658203125,12.52883243560791,1.4069468975067139,-1.8286582231521606
1687499576395580000,1.460579833984375,12.327497482299805,1.7691365480422974,-2.1152141094207764
1687499576405634800,1.470634765625,12.05372428894043,1.9853850603103638,-2.4315974712371826
1687499576415690000,1.48068994140625,11.796996116638184,1.9960377216339111,-2.7543723583221436
1687499576425745200,1.4907451171875,11.543462753295898,1.644500732421875,-3.0760819911956787
1687499576435800000,1.500800048828125,11.175947189331055,1.1736541986465454,-3.3839430809020996
1687499576445855200,1.510855224609375,10.627336502075195,0.7752456068992615,-3.625757932662964
1687499576455910100,1.52091015625,9.97752571105957,0.9297088384628296,-3.783416986465454
1687499576465965300,1.53096533203125,9.096552848815918,0.7305045127868652,-3.9112486839294434
1687499576476020200,1.541020263671875,8.013179779052734,0.6229129433631897,-3.665172815322876
1687499576486075400,1.551075439453125,6.823279857635498,0.7134603261947632,-3.173020839691162
1687499576496130300,1.56113037109375,5.74097204208374,0.7422224283218384,-2.6052353382110596
1687499576506185500,1.571185546875,4.8365631103515625,0.8167908787727356,-1.9714034795761108
1687499576516240400,1.581240478515625,4.074899673461914,0.5653886795043945,-1.3663337230682373
1687499576526295600,1.591295654296875,3.4027183055877686,0.13182637095451355,-0.8145272135734558
1687499576536350700,1.601350830078125,2.806170701980591,-0.27830013632774353,-0.3117227852344513
1687499576546405600,1.611405517578125,2.235189437866211,-0.5137233734130859,0.08135951310396194
1687499576556460800,1.621460693359375,1.6258586645126343,-0.4689823091030121,0.342349112033844
1687499576566515700,1.631515625,0.9739173054695129,-0.29214856028556824,0.5383576154708862
1687499576576571000,1.64157080078125,0.37204334139823914,-0.11424952745437622,0.6704503297805786
1687499576586626000,1.6516259765625,-0.10945583879947662,0.09986846894025803,0.7215829491615295
1687499576596681200,1.66168115234375,-0.4631233811378479,0.23409168422222137,0.7056040167808533
1687499576606736100,1.671736083984375,-0.7219824194908142,0.22663484513759613,0.6715155839920044
1687499576616791300,1.681791259765625,-0.8764456510543823,0.14567480981349945,0.6278397440910339
1687499576626846500,1.691846435546875,-0.9190561771392822,0.04767054691910744,0.5692502856254578
1687499576636901600,1.701901611328125,-0.8828372359275818,-0.10253162682056427,0.5191828608512878
1687499576646956500,1.71195654296875,-0.8487488031387329,-0.284691721200943,0.5170523524284363
1687499576657011700,1.72201171875,-0.860466718673706,-0.46578651666641235,0.5543365478515625
1687499576667067000,1.73206689453125,-0.9084035754203796,-0.47324338555336,0.5958818197250366
1687499576677122000,1.7421220703125,-0.9840372800827026,-0.2889527678489685,0.6193176507949829
1687499576687177000,1.752177001953125,-1.0852373838424683,-0.12064110487699509,0.6374271512031555
1687499576697232100,1.762232177734375,-1.1779152154922485,-0.11211899667978287,0.643818736076355
1687499576707287300,1.772287353515625,-1.242896318435669,-0.20266640186309814,0.6342313289642334
1687499576717342500,1.782342529296875,-1.2695279121398926,-0.24421168863773346,0.6107955574989319
1687499576727397400,1.7923974609375,-1.2610058784484863,-0.1771000772714615,0.585229218006134
1687499576737452500,1.80245263671875,-1.2311784029006958,-0.07590003311634064,0.5884249806404114
1687499576747507700,1.8125078125,-1.2088079452514648,-0.027963170781731606,0.6118608117103577
1687499576757563000,1.82256298828125,-1.1821763515472412,-0.02583264373242855,0.6331660747528076
1687499576767617800,1.83261767578125,-1.1150647401809692,-0.04607265070080757,0.6416881680488586
1687499576777673000,1.8426728515625,-1.0096036195755005,-0.0588558167219162,0.631035566329956
1687499576787728100,1.85272802734375,-0.8849677443504333,-0.13129374384880066,0.585229218006134
1687499576797783300,1.862783203125,-0.7507445216178894,-0.2612559199333191,0.5181176066398621
1687499576807838200,1.872838134765625,-0.6250434517860413,-0.34754225611686707,0.43928807973861694
1687499576817893400,1.882893310546875,-0.534496009349823,-0.32943278551101685,0.34447962045669556
1687499576827948500,1.892948486328125,-0.48016759753227234,-0.20160114765167236,0.2486059069633484
1687499576838003700,1.903003662109375,-0.4546012580394745,-0.0002663159102667123,0.1868206113576889
1687499576848058600,1.91305859375,-0.45140546560287476,0.15952323377132416,0.16977639496326447
1687499576858113800,1.92311376953125,-0.4535360038280487,0.23196116089820862,0.17084164917469025
1687499576868169000,1.9331689453125,-0.4407528340816498,0.2575274705886841,0.17403744161128998
1687499576878224000,1.943223876953125,-0.4258391261100769,0.25433170795440674,0.1676458716392517
1687499576888279000,1.953279052734375,-0.39494648575782776,0.2234390527009964,0.1442100703716278
1687499576898334000,1.963333984375,-0.3406180441379547,0.16378428041934967,0.11331742256879807
1687499576908389000,1.97338916015625,-0.28202855587005615,0.07217161357402802,0.11331742256879807
1687499576918444000,1.983444091796875,-0.23835274577140808,-0.05033370852470398,0.16445007920265198
1687499576928499200,1.993499267578125,-0.2330264151096344,-0.12277163565158844,0.2667153775691986
1687499576938554400,2.003554443359375,-0.29694223403930664,-0.07590003311634064,0.3806985914707184
1687499576948609300,2.013609375,-0.45140546560287476,0.0018642114009708166,0.547944962978363
1687499576958664400,2.02366455078125,-0.7209171652793884,-0.023702116683125496,0.819587230682373
1687499576968719400,2.03371923828125,-1.1715236902236938,-0.1430116444826126,1.2169305086135864
1687499576978774500,2.0437744140625,-1.9054902791976929,-0.4593949317932129,1.7058866024017334
1687499576988829400,2.053829345703125,-2.9622318744659424,-1.0452899932861328,2.239583730697632
1687499576998884600,2.063884521484375,-4.334291458129883,-1.4554164409637451,2.778607130050659
1687499577008939500,2.073939453125,-6.0621490478515625,-1.451155424118042,3.2537145614624023
1687499577018994700,2.08399462890625,-8.13621711730957,-1.163534164428711,3.5807504653930664
1687499577029049600,2.094049560546875,-10.391380310058594,-0.9025446176528931,3.6638412475585938
1687499577039104800,2.104104736328125,-12.63056468963623,-0.6980140209197998,3.4965946674346924
1687499577049160000,2.114159912109375,-14.700371742248535,-0.3986749053001404,3.112034559249878
1687499577059214800,2.12421484375,-16.34833526611328,0.008255792781710625,2.512291193008423
1687499577069270000,2.13427001953125,-17.362464904785156,0.571780264377594,1.8859161138534546
1687499577079325000,2.144324951171875,-17.71400260925293,1.128913164138794,1.5919033288955688
1687499577089380000,2.154380126953125,-17.318790435791016,1.6966986656188965,1.9700719118118286
1687499577099435000,2.16443505859375,-16.009580612182617,2.1632840633392334,3.1897988319396973
1687499577109490200,2.174490234375,-13.893967628479004,2.0535619258880615,4.757866859436035
1687499577119545000,2.184545166015625,-10.8675537109375,1.3004206418991089,5.859349727630615
1687499577129600300,2.194600341796875,-6.815290451049805,0.5952160358428955,5.9222002029418945
1687499577139655400,2.204655517578125,-2.0535619258880615,-0.08974846452474594,4.66412353515625
1687499577149710300,2.21471044921875,2.779539108276367,-0.6958834528923035,2.000964641571045
1687499577159765500,2.224765625,7.222754001617432,-0.945155143737793,-1.6646076440811157
1687499577169820400,2.2348203125,10.955437660217285,-1.086835265159607,-4.946684837341309
1687499577179875600,2.24487548828125,14.108617782592773,-1.0772478580474854,-6.848180294036865
1687499577189930500,2.254930419921875,16.763254165649414,-1.2562121152877808,-7.5416669845581055
1687499577199985700,2.264985595703125,18.68498992919922,-1.4777870178222656,-7.648193359375
1687499577210040600,2.27504052734375,19.901521682739258,-1.3627384901046753,-7.580016613006592
1687499577220095700,2.285095703125,20.297800064086914,-0.8652604222297668,-7.573625087738037
1687499577230150700,2.295150634765625,19.89299964904785,-0.056725289672613144,-7.69826078414917
1687499577240205800,2.305205810546875,18.689250946044922,0.6591318845748901,-7.920900821685791
1687499577250261000,2.315260986328125,16.802669525146484,1.3696627616882324,-8.246871948242188
1687499577260316000,2.32531591796875,14.372803688049316,2.219743013381958,-8.53236198425293
1687499577270371000,2.33537109375,11.710709571838379,2.3752715587615967,-8.39174747467041
1687499577280426000,2.345426025390625,9.324519157409668,1.7744629383087158,-7.340332508087158
1687499577290481200,2.355481201171875,7.349520206451416,0.9776456952095032,-5.4281840324401855
1687499577300536000,2.3655361328125,5.8389763832092285,-0.10253162682056427,-3.197521924972534
1687499577310591200,2.37559130859375,4.516983985900879,-0.8450203537940979,-1.0840388536453247
1687499577320646100,2.385646240234375,3.1502509117126465,-0.785365641117096,0.4595280885696411
1687499577330701300,2.395701416015625,1.6663386821746826,-0.07909582555294037,1.0965557098388672
1687499577340756200,2.405756103515625,0.24314641952514648,0.9190561771392822,1.0571409463882446
1687499577350811400,2.415811279296875,-0.903077244758606,1.7382439374923706,0.7269092798233032
1687499577360866600,2.425866455078125,-1.6679365634918213,2.0546271800994873,0.39667755365371704
1687499577370921500,2.43592138671875,-2.075932502746582,1.8074860572814941,0.21877852082252502
1687499577380976600,2.4459765625,-2.2026989459991455,1.23757004737854,0.219843789935112
1687499577391031600,2.456031494140625,-2.1036293506622314,0.5494097471237183,0.30613014101982117
1687499577401086700,2.466086669921875,-1.8735324144363403,-0.05459476262331009,0.4446144104003906
1687499577411141600,2.4761416015625,-1.6498271226882935,-0.48922231793403625,0.6789724230766296
1687499577421196800,2.48619677734375,-1.5379743576049805,-0.8045403361320496,0.9548757076263428
1687499577431251700,2.496251708984375,-1.564605951309204,-0.9334372878074646,1.1540800333023071
1687499577441307000,2.506306884765625,-1.6935029029846191,-0.7608645558357239,1.2446273565292358
1687499577451361800,2.51636181640625,-1.8980334997177124,-0.3368896245956421,1.2552800178527832
1687499577461417000,2.5264169921875,-2.1483705043792725,0.1392832249403,1.1945600509643555
1687499577471472000,2.53647216796875,-2.409359931945801,0.4812328517436981,1.1167957782745361
1687499577481527000,2.546527099609375,-2.572345495223999,0.6293044686317444,1.0784462690353394
1687499577491582200,2.556582275390625,-2.596846342086792,0.5813676118850708,1.0688588619232178
1687499577501637000,2.56663720703125,-2.478602170944214,0.34381383657455444,1.0837725400924683
1687499577511692300,2.5766923828125,-2.220808267593384,0.06471476703882217,1.1082736253738403
1687499577521747200,2.586747314453125,-1.8767281770706177,-0.14194637537002563,1.1167957782745361
1687499577531802400,2.59680224609375,-1.527321696281433,-0.228232741355896,1.1061431169509888
1687499577541857300,2.606857177734375,-1.2439615726470947,-0.23995064198970795,1.0592715740203857
1687499577551912400,2.616912353515625,-1.0511488914489746,-0.18349166214466095,0.9655283093452454
1687499577561967400,2.62696728515625,-0.9233172535896301,-0.07483477145433426,0.8302398324012756
1687499577572022500,2.6370224609375,-0.8412919640541077,-0.04287686198949814,0.6757766008377075
1687499577582077700,2.64707763671875,-0.7613971829414368,-0.11318425834178925,0.5554018020629883
1687499577592132600,2.657132568359375,-0.6367613673210144,-0.20266640186309814,0.5010733604431152
1687499577602187800,2.667187744140625,-0.4918854832649231,-0.25806012749671936,0.4840291738510132
1687499577612242700,2.67724267578125,-0.3512706756591797,-0.27403905987739563,0.4701807498931885
1687499577622297900,2.6872978515625,-0.24048326909542084,-0.2612559199333191,0.4414186179637909
1687499577632352800,2.697352783203125,-0.18189376592636108,-0.21544957160949707,0.39667755365371704
1687499577642408000,2.707407958984375,-0.16911059617996216,-0.15046848356723785,0.3561975359916687
1687499577652462800,2.717462890625,-0.18295903503894806,-0.11211899667978287,0.32104381918907166
1687499577662518000,2.72751806640625,-0.19254639744758606,-0.1153147891163826,0.2805638015270233
1687499577672573200,2.7375732421875,-0.18828535079956055,-0.13129374384880066,0.24541011452674866
1687499577682628000,2.747628173828125,-0.17337165772914886,-0.1664474457502365,0.22090904414653778
1687499577692683300,2.757683349609375,-0.16165375709533691,-0.1994706094264984,0.21771325170993805
1687499577702738200,2.76773828125,-0.15845796465873718,-0.21118851006031036,0.2241048365831375
1687499577712793300,2.77779345703125,-0.1573926955461502,-0.1664474457502365,0.24221432209014893
1687499577722848300,2.78784814453125,-0.14993585646152496,-0.07590003311634064,0.27310696244239807
1687499577732903400,2.7979033203125,-0.13715268671512604,-0.005592633970081806,0.30293434858322144
1687499577742958300,2.807958251953125,-0.10306425392627716,0.03488738462328911,0.3008038103580475
1687499577753013500,2.818013427734375,-0.05512739345431328,0.029561065137386322,0.25499749183654785
1687499577763068400,2.828068359375,0.005592633970081806,-0.010918952524662018,0.17510271072387695
1687499577773123600,2.83812353515625,0.06524740159511566,-0.09614004194736481,0.08242477476596832
1687499577783178800,2.8481787109375,0.12703268229961395,-0.16857796907424927,0.011052110232412815
1687499577793233700,2.858233642578125,0.1856221854686737,-0.20692746341228485,-0.018775271251797676
1687499577803288800,2.868288818359375,0.22929799556732178,-0.2516685426235199,0.005725792143493891
1687499577813343700,2.87834375,0.26871275901794434,-0.32410645484924316,0.045140545815229416
1687499577823399000,2.88839892578125,0.31451907753944397,-0.41784965991973877,0.07922898232936859
1687499577833453800,2.898453857421875,0.36245596408843994,-0.622380256652832,0.14847111701965332
1687499577843509000,2.908509033203125,0.406131774187088,-0.9675257205963135,0.3370227813720703
1687499577853564000,2.91856396484375,0.4402202069759369,-1.463938593864441,0.6960166096687317
1687499577863619000,2.928619140625,0.4221107065677643,-2.071138858795166,1.2733895778656006
1687499577873674000,2.938674072265625,0.2474074810743332,-2.6847307682037354,2.054227828979492
1687499577883729200,2.948729248046875,-0.15100112557411194,-3.2003183364868164,2.848914384841919
1687499577893784300,2.958784423828125,-0.7965508699417114,-3.5678341388702393,3.4816811084747314
1687499577903839200,2.968839111328125,-1.6807197332382202,-3.832019567489624,3.8981990814208984
1687499577913894400,2.978894287109375,-2.8471834659576416,-3.8735649585723877,4.1368184089660645
1687499577923949300,2.98894921875,-4.431230545043945,-3.55505108833313,4.22843074798584
1687499577934004500,2.99900439453125,-6.406229019165039,-3.053311824798584,4.094207763671875
1687499577944059400,3.009059326171875,-8.628369331359863,-2.2469072341918945,3.7639758586883545
1687499577954114600,3.019114501953125,-10.917620658874512,-1.5385069847106934,3.249453544616699
1687499577964169700,3.029169677734375,-13.157870292663574,-0.9739173054695129,2.611360549926758
1687499577974225000,3.039224853515625,-15.367226600646973,-0.3326285779476166,1.8273266553878784
1687499577984279800,3.04927978515625,-17.376314163208008,0.6207823753356934,0.9282441139221191
1687499577994335000,3.0593349609375,-19.064756393432617,1.8373134136199951,0.08881635963916779
1687499578004390100,3.06939013671875,-20.193937301635742,2.9760801792144775,-0.2978743314743042
1687499578014445300,3.0794453125,-20.38355255126953,3.8538575172424316,0.2816290855407715
1687499578024500200,3.089500244140625,-19.113759994506836,3.8410744667053223,1.9125477075576782
1687499578034555400,3.099555419921875,-16.058582305908203,2.682067632675171,4.189016342163086
1687499578044610600,3.109610595703125,-11.405511856079102,1.644500732421875,5.800759792327881
1687499578054665700,3.119665771484375,-6.101563930511475,0.9137299060821533,5.160536766052246
1687499578064720600,3.129720703125,-0.2745717167854309,0.17017586529254913,2.000964641571045
1687499578074775800,3.13977587890625,5.46293830871582,-0.7832350730895996,-2.3431804180145264
1687499578084831000,3.1498310546875,10.443045616149902,-1.8250629901885986,-6.075864315032959
1687499578094886100,3.15988623046875,14.459089279174805,-2.329998016357422,-8.15632438659668
1687499578104941000,3.169941162109375,17.715600967407227,-2.69112229347229,-8.797613143920898
1687499578114996200,3.179996337890625,20.17103385925293,-3.028810739517212,-8.622909545898438
1687499578125051400,3.190051513671875,21.909543991088867,-3.420827865600586,-8.033819198608398
1687499578135106600,3.2001064453125,22.779863357543945,-3.4879393577575684,-7.3680291175842285
1687499578145161500,3.210161376953125,22.539113998413086,-2.7486464977264404,-7.102778434753418
1687499578155216600,3.220216552734375,21.122314453125,-1.5576817989349365,-7.345658779144287
1687499578165271800,3.230271728515625,18.393108367919922,-0.171773761510849,-7.872963905334473
1687499578175327000,3.240326904296875,14.54004955291748,1.099085807800293,-8.353398323059082
1687499578185382000,3.2503818359375,10.688055992126465,1.3377047777175903,-8.267111778259277
1687499578195437000,3.26043701171875,7.587073802947998,1.011734127998352,-6.993056297302246
1687499578205492200,3.2704921875,5.193426609039307,0.6729803085327148,-4.630301475524902
1687499578215547400,3.28054736328125,3.410175323486328,0.03914843872189522,-1.9010961055755615
1687499578225602300,3.290602294921875,2.1382503509521484,-0.08974846452474594,0.3849596381187439
1687499578235657500,3.300657470703125,1.0708563327789307,0.3310306668281555,1.7026907205581665
1687499578245712600,3.310712646484375,0.040746334940195084,0.9265130758285522,2.0680761337280273
1687499578255767800,3.320767822265625,-0.8583361506462097,1.1747194528579712,1.8209350109100342
1687499578265822700,3.33082275390625,-1.493233323097229,0.9446225166320801,1.2914990186691284
1687499578275878000,3.3408779296875,-1.8000292778015137,0.5110602378845215,0.749279797077179
1687499578285933000,3.35093310546875,-1.8287913799285889,0.07643266767263412,0.32104381918907166
1687499578295988200,3.36098828125,-1.7073513269424438,-0.1952095627784729,0.061119500547647476
1687499578306043100,3.371043212890625,-1.5923027992248535,-0.3304980397224426,0.024900536984205246
1687499578316098300,3.381098388671875,-1.5699323415756226,-0.3976096510887146,0.2624543309211731
1687499578326153500,3.391153564453125,-1.6583491563796997,-0.40506649017333984,0.6619281768798828
1687499578336208600,3.401208740234375,-1.8245302438735962,-0.39974018931388855,1.013465166091919
1687499578346263600,3.411263671875,-2.0088210105895996,-0.3411506712436676,1.2307789325714111
1687499578356318700,3.421318603515625,-2.15156626701355,-0.29747486114501953,1.3223916292190552
1687499578366373600,3.43137353515625,-2.219743013381958,-0.2708432674407959,1.3298485279083252
1687499578376428800,3.4414287109375,-2.185654640197754,-0.24314641952514648,1.2712589502334595
1687499578386483700,3.451483642578125,-2.0738019943237305,-0.2186453640460968,1.1775157451629639
1687499578396539000,3.461538818359375,-1.8767281770706177,-0.1994706094264984,1.0848379135131836
1687499578406594000,3.471593994140625,-1.597629189491272,-0.19627483189105988,0.9964209794998169
1687499578416649000,3.48164892578125,-1.3206605911254883,-0.284691721200943,0.9143956899642944
1687499578426704100,3.4917041015625,-1.0980205535888672,-0.41891491413116455,0.8366314172744751
1687499578436759000,3.501759033203125,-0.9286435842514038,-0.47537389397621155,0.7578019499778748
1687499578446814200,3.511814208984375,-0.7986814379692078,-0.47111284732818604,0.6779071688652039
1687499578456869000,3.521869140625,-0.6985466480255127,-0.416784405708313,0.6289049983024597
1687499578466924300,3.53192431640625,-0.6282392144203186,-0.360325425863266,0.6012081503868103
1687499578476979200,3.541979248046875,-0.5728455185890198,-0.33369383215904236,0.5777723789215088
1687499578487034400,3.552034423828125,-0.5195823311805725,-0.31878015398979187,0.5554018020629883
1687499578497089500,3.562089599609375,-0.45140546560287476,-0.2612559199333191,0.5351617932319641
1687499578507144400,3.57214453125,-0.38109806180000305,-0.18881797790527344,0.5213133692741394
1687499578517199600,3.58219970703125,-0.29268118739128113,-0.18668745458126068,0.4936165511608124
1687499578527254500,3.592254638671875,-0.19680745899677277,-0.24953800439834595,0.4542017877101898
1687499578537309700,3.602309814453125,-0.12117373943328857,-0.3315632939338684,0.41585230827331543
1687499578547364600,3.612364501953125,-0.06684529036283493,-0.3922833502292633,0.39667755365371704
1687499578557419800,3.622419677734375,-0.0007989477599039674,-0.3880222737789154,0.3689807057380676
1687499578567474700,3.632474609375,0.03968106955289841,-0.3645864725112915,0.3274354040622711
1687499578577529900,3.64252978515625,0.03009369783103466,-0.37630438804626465,0.2869553864002228
1687499578587584800,3.652584716796875,-0.023169483989477158,-0.3635212182998657,0.2656501233577728
1687499578597640000,3.662639892578125,-0.09028109163045883,-0.31984540820121765,0.25606274604797363
1687499578607695000,3.672695068359375,-0.14141374826431274,-0.3070622384548187,0.26884591579437256
1687499578617750000,3.68275,-0.1627190262079239,-0.3166496157646179,0.2986733019351959
1687499578627805200,3.69280517578125,-0.1435442715883255,-0.3368896245956421,0.3274354040622711
1687499578637860000,3.702860107421875,-0.07962846010923386,-0.3699128031730652,0.350871205329895
1687499578647915300,3.712915283203125,-0.009321057237684727,-0.4540686309337616,0.3849596381187439
1687499578657970200,3.72297021484375,0.06205160543322563,-0.5435507893562317,0.43502703309059143
1687499578668025300,3.733025390625,0.14940322935581207,-0.6319676637649536,0.48509442806243896
1687499578678080300,3.743080322265625,0.22610220313072205,-0.7843003273010254,0.5937513113021851
1687499578688135400,3.753135498046875,0.2836264371871948,-1.1230541467666626,0.8025429844856262
1687499578698190300,3.7631904296875,0.3411506712436676,-1.6972312927246094,1.1657979488372803
1687499578708245500,3.77324560546875,0.3262369930744171,-2.3619558811187744,1.7655413150787354
1687499578718300700,3.78330078125,0.13235901296138763,-3.17688250541687,2.4952468872070312
1687499578728355600,3.79335546875,-0.30013802647590637,-3.911914348602295,3.2633020877838135
1687499578738410800,3.80341064453125,-1.1044120788574219,-4.137750148773193,4.043075084686279
1687499578748465700,3.813465576171875,-2.414686441421509,-3.9204366207122803,4.651340484619141
1687499578758520800,3.823520751953125,-4.301268100738525,-3.386739492416382,4.977311134338379
1687499578768576000,3.833575927734375,-6.72900390625,-2.7134928703308105,4.994355201721191
1687499578778631200,3.843631103515625,-9.450752258300781,-2.2021663188934326,4.652405738830566
1687499578788686000,3.85368603515625,-12.276897430419922,-1.8559556007385254,3.935483455657959
1687499578798741200,3.8637412109375,-15.068953514099121,-1.329715371131897,2.9117650985717773
1687499578808796400,3.87379638671875,-17.695894241333008,0.06578002870082855,1.6941686868667603
1687499578818851600,3.8838515625,-19.8147029876709,1.547561764717102,0.3242396116256714
1687499578828906500,3.893906494140625,-21.067453384399414,2.518016815185547,-0.7740471959114075
1687499578838961700,3.903961669921875,-21.220849990844727,3.0847373008728027,-1.0882999897003174
1687499578849016800,3.914016845703125,-19.95318603515625,3.1113688945770264,-0.12104058265686035
1687499578859072000,3.924072021484375,-17.102540969848633,2.582998037338257,1.9040255546569824
1687499578869127000,3.934126953125,-13.080105781555176,1.6626101732254028,4.0569233894348145
1687499578879182000,3.94418212890625,-8.627304077148438,0.6026729345321655,5.090229034423828
1687499578889237200,3.9542373046875,-3.990211248397827,-0.1856221854686737,4.475572109222412
1687499578899292400,3.96429248046875,0.2889527678489685,-0.7885614037513733,2.6720807552337646
1687499578909347300,3.974347412109375,4.12603235244751,-1.2167973518371582,0.5543365478515625
1687499578919402500,3.984402587890625,7.247254848480225,-1.2562121152877808,-1.2747211456298828
1687499578929457700,3.994457763671875,9.656881332397461,-0.7885614037513733,-2.7383933067321777
1687499578939512800,4.004512939453125,11.603117942810059,-0.416784405708313,-3.8452022075653076
1687499578949567700,4.014567626953125,13.286234855651855,-0.36671701073646545,-4.59088659286499
1687499578959623000,4.024622802734375,14.76801586151123,-0.5616602301597595,-5.089430332183838
1687499578969678000,4.034677978515625,16.078290939331055,-0.945155143737793,-5.405813694000244
1687499578979733200,4.044733154296875,17.136096954345703,-1.3041490316390991,-5.576255798339844
1687499578989788200,4.0547880859375,17.832778930664062,-1.4096101522445679,-5.678521156311035
1687499578999843300,4.06484326171875,18.076725006103516,-1.200818419456482,-5.841506481170654
1687499579009898500,4.0748984375,17.77206039428711,-0.6884266138076782,-6.188782215118408
1687499579019953700,4.08495361328125,16.9060001373291,-0.0727042406797409,-6.77680778503418
1687499579030008600,4.095008544921875,15.419957160949707,0.4013380706310272,-7.499056339263916
1687499579040063700,4.105063720703125,13.44069766998291,0.4013380706310272,-8.110517501831055
1687499579050119000,4.115118896484375,11.223883628845215,-0.4647212624549866,-7.951793670654297
1687499579060174000,4.125174072265625,9.142358779907227,-1.0921615362167358,-6.4359235763549805
1687499579070229000,4.13522900390625,7.481612682342529,-1.3851090669631958,-4.173303604125977
1687499579080284200,4.1452841796875,6.341780662536621,-1.3020185232162476,-1.89896559715271
1687499579090339300,4.15533935546875,5.2339067459106445,-0.8791088461875916,-0.12423637509346008
1687499579100394500,4.16539453125,3.8256280422210693,-0.3400854170322418,0.9037430286407471
1687499579110449400,4.175449462890625,2.229863166809082,0.07110634446144104,1.25101900100708
1687499579120504600,4.185504638671875,0.7289066314697266,0.43223071098327637,1.0944252014160156
1687499579130559700,4.195559814453125,-0.4535360038280487,0.8434224724769592,0.698147177696228
1687499579140615000,4.205614990234375,-1.2215911149978638,1.1576752662658691,0.3412838280200958
1687499579150669800,4.215669921875,-1.6114776134490967,1.2578099966049194,0.15486270189285278
1687499579160725000,4.22572509765625,-1.7211997509002686,1.1310436725616455,0.12716585397720337
1687499579170780200,4.2357802734375,-1.6721975803375244,0.7816371917724609,0.2059953510761261
1687499579180835300,4.24583544921875,-1.5582144260406494,0.3278348743915558,0.331696480512619
1687499579190890200,4.25589013671875,-1.4282522201538086,-0.08974846452474594,0.4840291738510132
1687499579200945400,4.2659453125,-1.3409006595611572,-0.42850229144096375,0.6406229138374329
1687499579211000600,4.27600048828125,-1.3483574390411377,-0.6095971465110779,0.7290397882461548
1687499579221055700,4.2860556640625,-1.4452964067459106,-0.5435507893562317,0.7215829491615295
1687499579231110700,4.296110595703125,-1.5933680534362793,-0.293213814496994,0.6597976684570312
1687499579241165800,4.306165771484375,-1.7329176664352417,-0.017310533672571182,0.5841639637947083
1687499579251221000,4.316220947265625,-1.840509295463562,0.23196116089820862,0.5362271070480347
1687499579261276200,4.326276123046875,-1.9235998392105103,0.38642439246177673,0.5298355221748352
1687499579271331000,4.3363310546875,-1.9576882123947144,0.38535910844802856,0.5660544633865356
1687499579281386200,4.34638623046875,-1.8841850757598877,0.23622220754623413,0.6161218881607056
1687499579291441400,4.35644140625,-1.6540881395339966,0.013582111336290836,0.660862922668457
1687499579301496600,4.36649658203125,-1.321725845336914,-0.19627483189105988,0.7034734487533569
1687499579311551500,4.376551513671875,-0.9819067716598511,-0.3400854170322418,0.7056040167808533
1687499579321606700,4.386606689453125,-0.7049382328987122,-0.39121806621551514,0.6427534222602844
1687499579331661800,4.396661865234375,-0.5089297294616699,-0.34754225611686707,0.5351617932319641
1687499579341717000,4.406717041015625,-0.3928159773349762,-0.22290641069412231,0.40200385451316833
1687499579351772000,4.41677197265625,-0.35233595967292786,-0.06737792491912842,0.27949854731559753
1687499579361827000,4.4268271484375,-0.35659700632095337,0.08069372177124023,0.1910816729068756
1687499579371882200,4.43688232421875,-0.3608580529689789,0.14993585646152496,0.1261005848646164
1687499579381937400,4.4469375,-0.3225085735321045,0.09773793816566467,0.09946899116039276
1687499579391992300,4.456992431640625,-0.23941799998283386,0.02210422046482563,0.13675321638584137
1687499579402047500,4.467047607421875,-0.12650005519390106,-0.03009369783103466,0.2155827283859253
1687499579412102700,4.4771025390625,-0.007190529722720385,-0.048203181475400925,0.3039996027946472
1687499579422157800,4.48715771484375,0.08016108721494675,-0.06418213248252869,0.3689807057380676
1687499579432212700,4.497212646484375,0.11105373501777649,-0.06737792491912842,0.3838943839073181
1687499579442268000,4.507267822265625,0.08655267208814621,-0.040746334940195084,0.34447962045669556
1687499579452323000,4.517322998046875,0.02583264373242855,0.0050600022077560425,0.27310696244239807
1687499579462378200,4.527378173828125,-0.03169159218668938,0.04340949282050133,0.1921469271183014
1687499579472433200,4.53743310546875,-0.05512739345431328,0.0679105594754219,0.12397005409002304
1687499579482488300,4.54748828125,-0.048735812306404114,0.05512739345431328,0.07709845900535583
1687499579492543500,4.55754345703125,-0.029561065137386322,0.003994738683104515,0.07922898232936859
1687499579502598700,4.5675986328125,-0.023169483989477158,-0.04713791608810425,0.12929637730121613
1687499579512653600,4.577653564453125,-0.027430538088083267,-0.03755054250359535,0.1921469271183014
1687499579522708700,4.587708740234375,-0.04767054691910744,0.019973693415522575,0.24541011452674866
1687499579532764000,4.597763916015625,-0.08815056830644608,0.0679105594754219,0.2709764242172241
1687499579542819000,4.607819091796875,-0.11797794699668884,0.060453712940216064,0.2635195851325989
1687499579552874000,4.6178740234375,-0.10626004636287689,0.03701791167259216,0.2432795912027359
1687499579562929200,4.62792919921875,-0.06684529036283493,0.028495801612734795,0.2155827283859253
1687499579572984300,4.637984375,-0.011451584286987782,0.014647374860942364,0.19853851199150085
1687499579583039500,4.64803955078125,0.052464235574007034,-0.0354200154542923,0.20386482775211334
1687499579593094400,4.658094482421875,0.09933583438396454,-0.12064110487699509,0.24434484541416168
1687499579603149600,4.668149658203125,0.10466215014457703,-0.23568958044052124,0.31145647168159485
1687499579613204700,4.678204833984375,0.060986343771219254,-0.3411506712436676,0.38282912969589233
1687499579623260000,4.688260009765625,-0.04767054691910744,-0.4540686309337616,0.4733765423297882
1687499579633315000,4.698315185546875,-0.19680745899677277,-0.6905571818351746,0.6640587449073792
1687499579643370200,4.708370361328125,-0.3874896466732025,-1.2157320976257324,1.105077862739563
1687499579653425400,4.71842529296875,-0.760331928730011,-2.0551598072052,1.9317224025726318
1687499579663480600,4.72848046875,-1.6253260374069214,-2.983004570007324,3.1439924240112305
1687499579673535700,4.73853564453125,-3.226417303085327,-3.6647732257843018,4.48622465133667
1687499579683591000,4.7485908203125,-5.696763515472412,-3.5433332920074463,5.56533670425415
1687499579693646000,4.75864599609375,-9.017189979553223,-2.9862003326416016,5.876393795013428
1687499579703701200,4.768701171875,-12.796746253967285,-2.1840567588806152,5.267063140869141
1687499579713756400,4.77875634765625,-16.572040557861328,-0.9760478138923645,4.072902202606201
1687499579723811600,4.7888115234375,-19.879684448242188,0.48975494503974915,2.6688849925994873
1687499579733866800,4.79886669921875,-22.80170249938965,2.4956464767456055,1.553553819656372
1687499579743922000,4.808921875,-25.144216537475586,4.486624240875244,1.099751591682434
1687499579753977000,4.81897705078125,-26.37033462524414,6.162283897399902,1.6142739057540894
1687499579764032300,4.8290322265625,-25.678979873657227,7.1082377433776855,3.220691442489624
1687499579774087400,4.83908740234375,-22.477861404418945,6.447774410247803,5.680385112762451
1687499579784142600,4.849142578125,-17.294288635253906,3.5225605964660645,7.919569492340088
1687499579794197800,4.85919775390625,-11.287267684936523,0.7613971829414368,8.47031021118164
1687499579804252700,4.869252685546875,-5.369727611541748,-0.6468813419342041,6.803173065185547
1687499579814307800,4.879307861328125,0.15366427600383759,-1.5907049179077148,3.673428535461426
1687499579824363000,4.889363037109375,4.693818092346191,-2.722014904022217,0.1303616315126419
1687499579834418200,4.899418212890625,7.901326656341553,-3.282343626022339,-2.961033344268799
1687499579844473300,4.909473388671875,9.945568084716797,-3.296191930770874,-4.893421649932861
1687499579854528500,4.919528564453125,11.311235427856445,-3.246124744415283,-5.676390647888184
1687499579864583700,4.929583740234375,12.272103309631348,-3.1811435222625732,-5.666802883148193
1687499579874638800,4.939638916015625,13.027375221252441,-3.0107014179229736,-5.2151312828063965
1687499579884694000,4.949694091796875,13.658011436462402,-2.9627645015716553,-4.582364559173584
1687499579894749200,4.959749267578125,14.205556869506836,-2.835998058319092,-4.013514041900635
1687499579904804400,4.969804443359375,14.655097961425781,-2.4514379501342773,-3.609779119491577
1687499579914859500,4.979859619140625,14.993851661682129,-2.066877841949463,-3.2507851123809814
1687499579924914700,4.989914794921875,15.245254516601562,-1.6833828687667847,-2.951446056365967
1687499579934969900,4.999969970703125,15.342193603515625,-1.4447637796401978,-2.861963987350464
1687499579945025000,5.01002490234375,15.253776550292969,-1.329715371131897,-3.0718209743499756
1687499579955080200,5.020080078125,14.866020202636719,-1.208275318145752,-3.5426673889160156
1687499579965135400,5.03013525390625,14.058550834655762,-1.0580731630325317,-4.167977333068848
1687499579975190500,5.0401904296875,12.78449535369873,-0.8439550995826721,-4.738958358764648
1687499579985245700,5.05024560546875,11.009765625,-0.672447681427002,-5.06919002532959
1687499579995300600,5.060300537109375,8.867521286010742,-0.629837155342102,-4.946684837341309
1687499580005355800,5.070355712890625,6.667751312255859,-0.46046021580696106,-4.270242691040039
1687499580015411000,5.080410888671875,4.796083450317383,-0.14727269113063812,-3.088865041732788
1687499580025466000,5.090466064453125,3.2344067096710205,0.35233595967292786,-1.5974960327148438
1687499580035521000,5.10052099609375,1.9156103134155273,0.8807067275047302,-0.13595427572727203
1687499580045576200,5.110576171875,0.8034750819206238,1.2610058784484863,0.916526198387146
1687499580055631400,5.12063134765625,-0.13502216339111328,1.284441590309143,1.432113766670227
1687499580065686500,5.1306865234375,-0.8647277355194092,1.091628909111023,1.5343791246414185
1687499580075741400,5.140741455078125,-1.3462269306182861,0.8753803968429565,1.3277180194854736
1687499580085796600,5.150796630859375,-1.5560839176177979,0.7177214026451111,0.9612672924995422
1687499580095851800,5.160851806640625,-1.5369091033935547,0.601607620716095,0.5522060394287109
1687499580105907000,5.170906982421875,-1.3920332193374634,0.5249086618423462,0.2006690353155136
1687499580115961900,5.1809619140625,-1.2247868776321411,0.42796966433525085,0.03129211813211441
1687499580126017000,5.19101708984375,-1.0852373838424683,0.21278640627861023,0.07922898232936859
1687499580136072200,5.201072265625,-0.9733846783638,-0.019441060721874237,0.2432795912027359
1687499580146127400,5.21112744140625,-0.8913593292236328,-0.18349166214466095,0.3998733460903168
1687499580156182300,5.221182373046875,-0.8807067275047302,-0.2324937880039215,0.46272388100624084
1687499580166237400,5.231237548828125,-0.9265130758285522,-0.21012325584888458,0.4030691385269165
1687499580176292600,5.241292724609375,-0.9637972712516785,-0.08442214131355286,0.25925853848457336
1687499580186347800,5.25134765625,-0.9914941191673279,0.09560741484165192,0.16018901765346527
1687499580196402700,5.261402587890625,-1.0298435688018799,0.21065588295459747,0.16125428676605225
1687499580206457900,5.271457763671875,-1.0767152309417725,0.27350643277168274,0.21238693594932556
1687499580216513000,5.281512939453125,-1.1065425872802734,0.2660495936870575,0.25073641538619995
1687499580226568200,5.291568115234375,-1.0713889598846436,0.20639483630657196,0.24647536873817444
1687499580236623000,5.301623046875,-0.9797762632369995,0.14460954070091248,0.2347574681043625
1687499580246678300,5.31167822265625,-0.8657930493354797,0.0913463607430458,0.2518016993999481
1687499580256733400,5.3217333984375,-0.7496792674064636,0.08069372177124023,0.2763027548789978
1687499580266788600,5.33178857421875,-0.6367613673210144,0.07856319099664688,0.26884591579437256
1687499580276843500,5.341843505859375,-0.525973916053772,0.06578002870082855,0.22623535990715027
1687499580286898700,5.351898681640625,-0.4066644012928009,0.02636527456343174,0.1868206113576889
1687499580296953900,5.361953857421875,-0.270310640335083,-0.032224226742982864,0.16977639496326447
1687499580307009000,5.372009033203125,-0.12756532430648804,-0.10040109604597092,0.17190691828727722
1687499580317064000,5.38206396484375,0.0034621069207787514,-0.1664474457502365,0.16658060252666473
1687499580327119000,5.392119140625,0.11638005077838898,-0.18668745458126068,0.1399490088224411
1687499580337174300,5.40217431640625,0.19307903945446014,-0.20692746341228485,0.11757847666740417
1687499580347229400,5.4122294921875,0.22184115648269653,-0.23142851889133453,0.11118689179420471
1687499580357284400,5.422284423828125,0.20799273252487183,-0.21331904828548431,0.09627319872379303
1687499580367339500,5.432339599609375,0.14727269113063812,-0.13981585204601288,0.06538055837154388
1687499580377394700,5.442394775390625,0.048203181475400925,-0.05459476262331009,0.03448791056871414
1687499580387449900,5.452449951171875,-0.05512739345431328,-0.020506324246525764,0.025965800508856773
1687499580397505000,5.462505126953125,-0.1201084777712822,-0.019441060721874237,0.05472791939973831
1687499580407560200,5.472560302734375,-0.14460954070091248,0.010386320762336254,0.09733846783638
1687499580417615400,5.482615478515625,-0.138217955827713,0.0007989477599039674,0.12290479242801666
1687499580427670500,5.49267041015625,-0.08388951420783997,-0.08122635632753372,0.1452753245830536
1687499580437725700,5.5027255859375,0.013049479573965073,-0.18881797790527344,0.2006690353155136
1687499580447780900,5.51278076171875,0.12170637398958206,-0.2665822207927704,0.2720417082309723
1687499580457836000,5.5228359375,0.2143843024969101,-0.237820103764534,0.3135869801044464
1687499580467891200,5.53289111328125,0.2836264371871948,-0.16964323818683624,0.3146522343158722
1687499580477946000,5.542946044921875,0.31132328510284424,-0.17070849239826202,0.31571751832962036
1687499580488001300,5.553001220703125,0.237820103764534,-0.2047969400882721,0.3647196292877197
1687499580498056400,5.563056396484375,0.03861580789089203,-0.2665822207927704,0.5436839461326599
1687499580508111600,5.573111572265625,-0.3043990731239319,-0.425306499004364,0.9239830374717712
1687499580518166800,5.583166748046875,-0.8934898972511292,-0.6095971465110779,1.5002906322479248
1687499580528222000,5.593221923828125,-2.012016773223877,-0.5510076284408569,2.249171018600464
1687499580538277000,5.603277099609375,-3.957188129425049,-0.18029586970806122,3.1450576782226562
1687499580548332300,5.613332275390625,-6.774810314178467,0.5281044244766235,4.174102306365967
1687499580558387500,5.623387451171875,-10.28698444366455,1.6530228853225708,5.216995716094971
1687499580568442600,5.633442626953125,-14.100628852844238,3.3095078468322754,5.968006610870361
1687499580578497800,5.643497802734375,-17.79496192932129,4.972384452819824,6.483593940734863
1687499580588553000,5.653552978515625,-20.631759643554688,5.956687927246094,6.910764694213867
1687499580598608100,5.663608154296875,-22.30848503112793,6.221938610076904,7.19305944442749
1687499580608663300,5.673663330078125,-22.44270896911621,6.093041896820068,7.504116535186768
1687499580618718500,5.683718505859375,-20.685022354125977,5.736178398132324,8.180559158325195
1687499580628773600,5.693773681640625,-17.40294647216797,4.254396438598633,9.067923545837402
1687499580638828800,5.703828857421875,-13.292093276977539,1.8426398038864136,9.00613784790039
1687499580648884000,5.713884033203125,-8.827573776245117,0.16591481864452362,7.334739685058594
1687499580658939100,5.723939208984375,-4.778506278991699,-0.8631298542022705,4.887828826904297
1687499580668994300,5.733994384765625,-1.5954985618591309,-1.6237281560897827,2.6092300415039062
1687499580679049500,5.744049560546875,0.9803088903427124,-1.9805914163589478,0.606534481048584
1687499580689104600,5.754104736328125,2.885000228881836,-2.060486316680908,-1.191630482673645
1687499580699159600,5.76415966796875,4.312453746795654,-1.9220019578933716,-2.7394585609436035
1687499580709214700,5.774214599609375,5.665338516235352,-2.000831365585327,-3.864377021789551
1687499580719270000,5.784269775390625,7.214231491088867,-2.407762050628662,-4.558928966522217
1687499580729325000,5.794324951171875,8.901609420776367,-2.944654941558838,-4.92111873626709
1687499580739380200,5.804380126953125,10.497374534606934,-3.2887351512908936,-5.077712535858154
1687499580749435400,5.814435302734375,11.848128318786621,-3.5220279693603516,-5.051080703735352
1687499580759490600,5.824490478515625,12.951741218566895,-3.708449125289917,-4.830571174621582
1687499580769545700,5.834545654296875,13.744297981262207,-3.693535327911377,-4.514187812805176
1687499580779601000,5.844600830078125,14.129922866821289,-3.3302805423736572,-4.351202487945557
1687499580789656000,5.854656005859375,14.119270324707031,-2.7198843955993652,-4.488621711730957
1687499580799711200,5.864711181640625,13.766668319702148,-2.160620927810669,-4.84122371673584
1687499580809766400,5.874766357421875,13.033766746520996,-1.8868482112884521,-5.247089385986328
1687499580819821600,5.884821533203125,11.872629165649414,-1.7526249885559082,-5.624192714691162
1687499580829876700,5.894876708984375,10.381260871887207,-1.5438333749771118,-5.952293872833252
1687499580839932000,5.904931884765625,8.78549575805664,-1.1400984525680542,-6.0492329597473145
1687499580849987000,5.914987060546875,7.2621684074401855,-0.8386288285255432,-5.493165016174316
1687499580860042200,5.925042236328125,5.970003604888916,-0.8322372436523438,-4.2670464515686035
1687499580870097400,5.935097412109375,4.891956806182861,-0.8205193281173706,-2.742654323577881
1687499580880152600,5.945152587890625,3.9673080444335938,-0.7097318768501282,-1.3194621801376343
1687499580890207700,5.955207763671875,3.0895309448242188,-0.5435507893562317,-0.2637858986854553
1687499580900263000,5.965262939453125,2.12014102935791,-0.33475908637046814,0.3849596381187439
1687499580910318000,5.975318115234375,1.0559425354003906,-0.29534435272216797,0.6842987537384033
1687499580920373000,5.985373046875,0.09720530360937119,-0.3028011918067932,0.7183871865272522
1687499580930428200,5.99542822265625,-0.5866939425468445,-0.15686006844043732,0.6129260659217834
1687499580940483300,6.0054833984375,-1.000016212463379,0.04340949282050133,0.48189863562583923
1687499580950538500,6.01553857421875,-1.2215911149978638,0.18402428925037384,0.3647196292877197
1687499580960593700,6.02559375,-1.3494226932525635,0.32996541261672974,0.2709764242172241
1687499580970648800,6.03564892578125,-1.426121711730957,0.3257043659687042,0.22197431325912476
1687499580980704000,6.0457041015625,-1.4484922885894775,0.1392832249403,0.26458486914634705
1687499580990759200,6.05575927734375,-1.4293174743652344,-0.06524740159511566,0.3806985914707184
1687499581000814300,6.065814453125,-1.396294355392456,-0.16005586087703705,0.49574705958366394
1687499581010869500,6.075869384765625,-1.3494226932525635,-0.16964323818683624,0.5628587007522583
1687499581020924700,6.085924560546875,-1.2642016410827637,-0.07696529477834702,0.5756418108940125
1687499581030979800,6.095979736328125,-1.1395658254623413,0.07643266767263412,0.5266396999359131
1687499581041035000,6.106034912109375,-1.0277130603790283,0.21704746782779694,0.42011335492134094
1687499581051090200,6.116090087890625,-0.9456877708435059,0.30013802647590637,0.2869553864002228
1687499581061145300,6.126145263671875,-0.8594014644622803,0.32037803530693054,0.14314480125904083
1687499581071200500,6.136200439453125,-0.7454182505607605,0.22663484513759613,0.011052110232412815
1687499581081255700,6.146255615234375,-0.5834981799125671,0.02636527456343174,-0.07310371845960617
1687499581091310800,6.156310791015625,-0.36192330718040466,-0.22290641069412231,-0.08482161909341812
1687499581101366000,6.166365966796875,-0.12756532430648804,-0.40400123596191406,-0.04008054360747337
1687499581111421200,6.176421142578125,0.05352949723601341,-0.4966791868209839,0.028096329420804977
1687499581121476400,6.186476318359375,0.1525990217924118,-0.500940203666687,0.07177213579416275
1687499581131531300,6.19653125,0.1664474457502365,-0.37097805738449097,0.06218476593494415
1687499581141586400,6.20658642578125,0.12809795141220093,-0.16325165331363678,0.02383527345955372
1687499581151641600,6.2166416015625,0.05992107838392258,0.011451584286987782,-0.011318426579236984
1687499581161696800,6.22669677734375,0.007723161485046148,0.07430213689804077,-0.04966791719198227
1687499581171752000,6.236751953125,0.011984216049313545,0.029561065137386322,-0.08482161909341812
1687499581181807000,6.24680712890625,0.0588558167219162,-0.060986343771219254,-0.10719215124845505
1687499581191862300,6.2568623046875,0.12383689731359482,-0.14727269113063812,-0.10186583548784256
1687499581201917400,6.26691748046875,0.1952095627784729,-0.20160114765167236,-0.06138581782579422
1687499581211972600,6.27697265625,0.25912538170814514,-0.2420811653137207,0.006791055668145418
1687499581222027800,6.28702783203125,0.29747486114501953,-0.2601906359195709,0.06644582003355026
1687499581232083000,6.2970830078125,0.293213814496994,-0.20373167097568512,0.08668582886457443
1687499581242138000,6.30713818359375,0.24953800439834595,-0.06524740159511566,0.0739026665687561
1687499581252193300,6.317193359375,0.17070849239826202,0.08069372177124023,0.05579318478703499
1687499581262248400,6.32724853515625,0.08974846452474594,0.13502216339111328,0.03235738351941109
1687499581272303600,6.3373037109375,0.052464235574007034,0.11797794699668884,0.0025300011038780212
1687499581282358800,6.34735888671875,0.06418213248252869,0.07643266767263412,-0.028362644836306572
1687499581292414000,6.3574140625,0.12170637398958206,0.04234423115849495,-0.04966791719198227
1687499581302469000,6.36746923828125,0.21012325584888458,0.016777902841567993,-0.06032055243849754
1687499581312524300,6.377524169921875,0.30493173003196716,0.003994738683104515,-0.05712476372718811
1687499581322579500,6.387579345703125,0.4018706977367401,0.024234747514128685,-0.04008054360747337
1687499581332634600,6.397634521484375,0.4902876019477844,0.05832318589091301,-0.018775271251797676
1687499581342689800,6.407689697265625,0.5765739679336548,0.014647374860942364,-0.0070573715493083
1687499581352744700,6.41774462890625,0.6490118503570557,-0.029028434306383133,-0.0006657897611148655
1687499581362799900,6.4277998046875,0.6362286806106567,-0.05779055133461952,0.025965800508856773
1687499581372855000,6.43785498046875,0.5392897129058838,-0.08761793375015259,0.11012163013219833
1687499581382910200,6.44791015625,0.3464770019054413,-0.036485280841588974,0.30613014101982117
1687499581392965400,6.45796533203125,-0.027430538088083267,0.09986846894025803,0.6928208470344543
1687499581403020500,6.4680205078125,-0.6964160799980164,0.5217128396034241,1.3160001039505005
1687499581413075700,6.47807568359375,-1.8596839904785156,1.2269173860549927,2.134122610092163
1687499581423131000,6.488130859375,-3.748396396636963,1.9481009244918823,3.0087039470672607
1687499581433186000,6.49818603515625,-6.291180610656738,2.239983081817627,3.7682368755340576
1687499581443241200,6.5082412109375,-9.164196968078613,2.1877851486206055,4.310456275939941
1687499581453296400,6.51829638671875,-11.921098709106445,2.3667495250701904,4.633231163024902
1687499581463351600,6.5283515625,-14.284918785095215,2.8482487201690674,4.813260555267334
1687499581473406700,6.53840673828125,-16.263113021850586,3.4384047985076904,5.002877712249756
1687499581483462000,6.5484619140625,-17.732112884521484,4.040278911590576,5.343761920928955
1687499581493517000,6.55851708984375,-18.630128860473633,4.512190341949463,5.897698879241943
1687499581503572200,6.568572265625,-18.697240829467773,4.844552516937256,6.828739643096924
1687499581513627400,6.57862744140625,-17.612802505493164,4.779571533203125,8.18695068359375
1687499581523682600,6.5886826171875,-15.548321723937988,3.6152384281158447,9.46633243560791
1687499581533737700,6.59873779296875,-12.895814895629883,2.070606231689453,10.223734855651855
1687499581543793000,6.60879296875,-9.837443351745605,1.1012163162231445,10.13744831085205
1687499581553848000,6.61884814453125,-6.599041938781738,0.36618438363075256,9.20640754699707
1687499581563903200,6.6289033203125,-3.5321478843688965,-0.4530033767223358,7.416764736175537
1687499581573958100,6.638958251953125,-0.8082687854766846,-1.0037447214126587,4.679037570953369
1687499581584013300,6.649013427734375,1.4181321859359741,-1.3265196084976196,1.6217306852340698
1687499581594068500,6.659068359375,3.0703561305999756,-1.5001574754714966,-1.0094704627990723
1687499581604123600,6.66912353515625,4.2570600509643555,-1.5438333749771118,-2.886465072631836
1687499581614178800,6.6791787109375,5.169990539550781,-1.6535555124282837,-4.013514041900635
1687499581624234000,6.68923388671875,5.985982894897461,-1.8399766683578491,-4.48542594909668
1687499581634289200,6.6992890625,6.715688228607178,-1.90495765209198,-4.49288272857666
1687499581644344300,6.70934423828125,7.338867664337158,-1.785648226737976,-4.284090995788574
1687499581654399500,6.7193994140625,7.903457164764404,-1.6045533418655396,-4.075299263000488
1687499581664454700,6.72945458984375,8.47763442993164,-1.4000227451324463,-3.997534990310669
1687499581674509800,6.739509765625,9.092291831970215,-1.0175931453704834,-4.162651062011719
1687499581684565000,6.74956494140625,9.780451774597168,-0.6095971465110779,-4.5408196449279785
1687499581694620200,6.7596201171875,10.61348819732666,-0.5233107805252075,-5.0116658210754395
1687499581704675300,6.76967529296875,11.614835739135742,-0.7033402919769287,-5.587973594665527
1687499581714730500,6.77973046875,12.648141860961914,-1.1273152828216553,-6.309156894683838
1687499581724785700,6.78978564453125,13.497157096862793,-1.3829785585403442,-7.158172130584717
1687499581734840800,6.7998408203125,13.992504119873047,-1.421328067779541,-7.923031330108643
1687499581744896000,6.80989599609375,14.155489921569824,-1.2583426237106323,-8.300134658813477
1687499581754951200,6.819951171875,13.82099723815918,-1.0570077896118164,-8.101995468139648
1687499581765006300,6.83000634765625,12.672642707824707,-1.150750994682312,-7.275351047515869
1687499581775061500,6.8400615234375,10.714688301086426,-1.6205322742462158,-5.922466278076172
1687499581785116700,6.85011669921875,8.347672462463379,-1.8176060914993286,-4.254263401031494
1687499581795171600,6.860171630859375,5.881587028503418,-1.0921615362167358,-2.7394585609436035
1687499581805226800,6.870226806640625,3.503918409347534,0.16591481864452362,-1.454750657081604
1687499581815282000,6.880281982421875,1.3957617282867432,1.1821763515472412,-0.4672512710094452
1687499581825337000,6.890337158203125,-0.1627190262079239,1.5965639352798462,0.15805849432945251
1687499581835392300,6.900392333984375,-1.0330394506454468,1.4026858806610107,0.4968123435974121
1687499581845447400,6.910447509765625,-1.2460922002792358,0.8167908787727356,0.6416881680488586
1687499581855502600,6.920502685546875,-0.9829720258712769,0.11584742367267609,0.6629934310913086
1687499581865557800,6.930557861328125,-0.4812328517436981,-0.4625907242298126,0.547944962978363
1687499581875613000,6.940613037109375,0.03755054250359535,-0.8684561848640442,0.3146522343158722
1687499581885668000,6.950668212890625,0.39121806621551514,-1.0506162643432617,0.09520793706178665
1687499581895723300,6.96072314453125,0.425306499004364,-1.053812026977539,0.007856319658458233
1687499581905778400,6.9707783203125,0.16112112998962402,-0.9110667109489441,0.05472791939973831
1687499581915833600,6.98083349609375,-0.25007063150405884,-0.6479465961456299,0.16231954097747803
1687499581925888800,6.990888671875,-0.714525580406189,-0.2985401451587677,0.2763027548789978
1687499581935944000,7.00094384765625,-1.1342394351959229,0.008255792781710625,0.3711112141609192
1687499581945999000,7.0109990234375,-1.3994901180267334,0.21172115206718445,0.4776375889778137
1687499581956054300,7.02105419921875,-1.4953638315200806,0.2649843394756317,0.5884249806404114
1687499581966109400,7.031109375,-1.4293174743652344,0.17337165772914886,0.6597976684570312
1687499581976164600,7.04116455078125,-1.196024775505066,-0.004527370445430279,0.673646092414856
1687499581986219800,7.0512197265625,-0.8530098795890808,-0.1813611388206482,0.6374271512031555
1687499581996275000,7.06127490234375,-0.48549389839172363,-0.28256118297576904,0.560728132724762
1687499582006330000,7.071330078125,-0.18189376592636108,-0.31878015398979187,0.4403533637523651
1687499582016385000,7.081385009765625,-0.00612526573240757,-0.24101589620113373,0.2954775094985962
1687499582026440200,7.091440185546875,0.0141147430986166,-0.15472954511642456,0.1729721873998642
1687499582036495400,7.101495361328125,-0.0636495053768158,-0.10785794258117676,0.10373004525899887
1687499582046550500,7.111550537109375,-0.1296958476305008,-0.10040109604597092,0.09094688296318054
1687499582056605700,7.121605712890625,-0.1478053331375122,-0.13981585204601288,0.12823110818862915
1687499582066660900,7.131660888671875,-0.10412952303886414,-0.21118851006031036,0.20173430442810059
1687499582076716000,7.141716064453125,-0.025300011038780212,-0.2623211741447449,0.2816290855407715
1687499582086771200,7.151771240234375,0.05459476262331009,-0.28149592876434326,0.3412838280200958
1687499582096826400,7.161826416015625,0.10998847335577011,-0.21331904828548431,0.3700459599494934
1687499582106881500,7.171881591796875,0.12809795141220093,-0.08335687965154648,0.3711112141609192
1687499582116936700,7.181936767578125,0.10998847335577011,0.0007989477599039674,0.34447962045669556
1687499582126992000,7.191991943359375,0.09081372618675232,-0.04394212365150452,0.30613014101982117
1687499582137047000,7.202047119140625,0.11424952745437622,-0.15579481422901154,0.25499749183654785
1687499582147102200,7.212102294921875,0.18668745458126068,-0.24634221196174622,0.19853851199150085
1687499582157157400,7.222157470703125,0.2751043438911438,-0.30599698424339294,0.1591237634420395
1687499582167212500,7.232212646484375,0.34860754013061523,-0.29534435272216797,0.1442100703716278
1687499582177267700,7.242267822265625,0.3922833502292633,-0.24527695775032043,0.14314480125904083
1687499582187323000,7.252322998046875,0.4018706977367401,-0.14088112115859985,0.1442100703716278
1687499582197378000,7.2623779296875,0.37204334139823914,0.018908429890871048,0.1495363861322403
1687499582207433200,7.27243310546875,0.31878015398979187,0.1957421898841858,0.16125428676605225
1687499582217488400,7.28248828125,0.2878875136375427,0.24900537729263306,0.1676458716392517
1687499582227543300,7.292543212890625,0.32517173886299133,0.15100112557411194,0.1825595498085022
1687499582237598500,7.302598388671875,0.44235071539878845,-0.01837579719722271,0.1964079886674881
1687499582247653600,7.312653564453125,0.5808349847793579,-0.13981585204601288,0.23795326054096222
1687499582257708800,7.322708740234375,0.6585992574691772,-0.2527337968349457,0.3711112141609192
1687499582267764000,7.332763916015625,0.6117276549339294,-0.3592601716518402,0.643818736076355
1687499582277819100,7.342819091796875,0.3890875577926636,-0.40400123596191406,1.0645978450775146
1687499582287874300,7.352874267578125,-0.08815056830644608,-0.35819488763809204,1.598294973373413
1687499582297929500,7.362929443359375,-0.9350351691246033,-0.17816534638404846,2.2299962043762207
1687499582307984600,7.372984619140625,-2.1867198944091797,0.6090644598007202,2.9852681159973145
1687499582318039800,7.383039794921875,-3.828291177749634,1.9630146026611328,3.8491969108581543
1687499582328095000,7.393094970703125,-5.761744499206543,3.4863414764404297,4.849479675292969
1687499582338150100,7.403150146484375,-7.994537353515625,4.396076679229736,5.806086540222168
1687499582348205300,7.413205322265625,-10.542648315429688,4.225634574890137,6.65723180770874
1687499582358260500,7.423260498046875,-13.170653343200684,3.276484727859497,7.542466163635254
1687499582368315600,7.433315673828125,-15.675087928771973,2.304964303970337,8.28708553314209
1687499582378370800,7.443370849609375,-17.66073989868164,2.397642135620117,8.82291316986084
1687499582388426000,7.453426025390625,-18.792049407958984,3.614173173904419,9.349153518676758
1687499582398481200,7.463481201171875,-18.551300048828125,4.861597061157227,10.2173433303833
1687499582408536300,7.473536376953125,-16.841552734375,5.18117618560791,11.287933349609375
1687499582418591500,7.483591552734375,-14.349900245666504,3.5726280212402344,11.815238952636719
1687499582428646700,7.493646728515625,-11.486471176147461,1.0479531288146973,11.144122123718262
1687499582438701800,7.503701904296875,-8.485624313354492,-0.7928224802017212,9.343827247619629
1687499582448756700,7.5137568359375,-5.661610126495361,-1.8026924133300781,7.050314426422119
1687499582458812000,7.52381201171875,-3.3329436779022217,-2.1489031314849854,4.504333972930908
1687499582468867000,7.5338671875,-1.3195953369140625,-2.1318588256835938,1.8699371814727783
1687499582478922200,7.543922119140625,0.5371592044830322,-2.273538827896118,-0.5205144286155701
1687499582488977400,7.553977294921875,2.339585304260254,-2.328932523727417,-2.3080267906188965
1687499582499032600,7.564032470703125,4.124967098236084,-2.3864569664001465,-3.496860980987549
1687499582509087700,7.574087646484375,6.039246082305908,-2.5047011375427246,-4.310722351074219
1687499582519143000,7.584142822265625,8.018506050109863,-2.6676864624023438,-4.852941513061523
1687499582529198000,7.594197998046875,9.873129844665527,-2.810431718826294,-5.165063858032227
1687499582539253200,7.604253173828125,11.51789665222168,-2.9020445346832275,-5.233240604400635
1687499582549308400,7.614308349609375,12.91232681274414,-2.9126970767974854,-5.081973552703857
1687499582559363600,7.624363525390625,14.0436372756958,-2.9308066368103027,-4.822049140930176
1687499582569418800,7.634418701171875,14.917153358459473,-2.8828697204589844,-4.661194324493408
1687499582579474000,7.644473876953125,15.307039260864258,-2.5004401206970215,-4.833766937255859
1687499582589529000,7.654529052734375,15.20370864868164,-1.7696691751480103,-5.29928731918335
1687499582599584300,7.664584228515625,14.723275184631348,-0.9504814743995667,-5.878790378570557
1687499582609639400,7.674639404296875,13.962677001953125,-0.33902016282081604,-6.467881202697754
1687499582619694600,7.684694580078125,12.993287086486816,0.03169159218668938,-7.0154266357421875
1687499582629749800,7.694749755859375,11.951458930969238,0.13715268671512604,-7.448989391326904
1687499582639805000,7.704804931640625,10.910696983337402,-0.04607265070080757,-7.515035629272461
1687499582649860000,7.714860107421875,9.743167877197266,-0.2665822207927704,-6.799178123474121
1687499582659915300,7.724915283203125,8.380695343017578,-0.3869570195674896,-5.336571216583252
1687499582669970200,7.73497021484375,6.960699081420898,-0.40400123596191406,-3.6268231868743896
1687499582680025300,7.745025390625,5.479982376098633,-0.1898832470178604,-2.0438413619995117
1687499582690080500,7.75508056640625,3.922567129135132,0.10732531547546387,-0.8060051202774048
1687499582700135700,7.7651357421875,2.343846321105957,0.32890015840530396,-0.013448953628540039
1687499582710190800,7.77519091796875,0.9270457029342651,0.5781718492507935,0.36365437507629395
1687499582720246000,7.78524609375,-0.15419691801071167,0.8828372359275818,0.46165862679481506
1687499582730301200,7.79530126953125,-0.8391614556312561,1.1608710289001465,0.4265049397945404
1687499582740356400,7.8053564453125,-1.1736541986465454,1.3249216079711914,0.3231743574142456
1687499582750411500,7.81541162109375,-1.2578099966049194,1.3313132524490356,0.1537974327802658
1687499582760466700,7.825466796875,-1.2194606065750122,1.1736541986465454,-0.02090579830110073
1687499582770521900,7.83552197265625,-1.1576752662658691,0.7848330140113831,-0.11358373612165451
1687499582780577000,7.845576904296875,-1.0820415019989014,0.22450430691242218,-0.07097318768501282
1687499582790632200,7.855632080078125,-0.9797762632369995,-0.27403905987739563,0.07709845900535583
1687499582800687400,7.865687255859375,-0.8828372359275818,-0.538224458694458,0.2720417082309723
1687499582810742500,7.875742431640625,-0.8466182947158813,-0.5392897129058838,0.47657233476638794
1687499582820797700,7.885797607421875,-0.9062730669975281,-0.34328120946884155,0.6171871423721313
1687499582830852900,7.895852783203125,-1.0351699590682983,-0.0727042406797409,0.6661892533302307
1687499582840907800,7.90590771484375,-1.1992205381393433,0.20852535963058472,0.6459492444992065
1687499582850963000,7.915962890625,-1.3685975074768066,0.43649178743362427,0.5830987095832825
1687499582861018000,7.92601806640625,-1.4708627462387085,0.5142560005187988,0.52237868309021
1687499582871073300,7.9360732421875,-1.4527533054351807,0.43649178743362427,0.47550705075263977
1687499582881128200,7.946128173828125,-1.3153343200683594,0.2607232630252838,0.4414186179637909
1687499582891183400,7.956183349609375,-1.0926941633224487,0.07643266767263412,0.4265049397945404
1687499582901238500,7.966238525390625,-0.835965633392334,-0.07696529477834702,0.40626493096351624
1687499582911293700,7.976293701171875,-0.5856286883354187,-0.1813611388206482,0.37643754482269287
1687499582921348600,7.9863486328125,-0.36618438363075256,-0.21225377917289734,0.342349112033844
1687499582931403800,7.99640380859375,-0.21065588295459747,-0.18775272369384766,0.2986733019351959
1687499582941459000,8.006458984375,-0.1435442715883255,-0.13129374384880066,0.25073641538619995
1687499582951514000,8.01651416015625,-0.148870587348938,0.0050600022077560425,0.19534271955490112
1687499582961569300,8.0265693359375,-0.22130851447582245,0.1531316488981247,0.13675321638584137
1687499582971624200,8.036624267578125,-0.3406180441379547,0.2522011697292328,0.10905636847019196
1687499582981679400,8.046679443359375,-0.45566651225090027,0.32996541261672974,0.12503531575202942
1687499582991734500,8.056734619140625,-0.5355613231658936,0.3928159773349762,0.16445007920265198
1687499583001789700,8.066789794921876,-0.5568665862083435,0.40027281641960144,0.2241048365831375
1687499583011844600,8.0768447265625,-0.5078644156455994,0.3278348743915558,0.2901511788368225
1687499583021899800,8.086899658203125,-0.3842938542366028,0.24580958485603333,0.3455449044704437
1687499583031955000,8.096954833984375,-0.21704746782779694,0.1201084777712822,0.3849596381187439
1687499583042010000,8.107010009765625,-0.03808317333459854,-0.07696529477834702,0.39561229944229126
1687499583052065000,8.11706494140625,0.1387505829334259,-0.2527337968349457,0.36258912086486816
1687499583062120200,8.1271201171875,0.293213814496994,-0.35393384099006653,0.3039996027946472
1687499583072175400,8.13717529296875,0.3933486044406891,-0.39547911286354065,0.24221432209014893
1687499583082230500,8.14723046875,0.42424124479293823,-0.3890875577926636,0.16977639496326447
1687499583092285400,8.157285400390625,0.40400123596191406,-0.3134538233280182,0.09201214462518692
1687499583102340600,8.167340576171876,0.36778226494789124,-0.20160114765167236,0.033422645181417465
1687499583112395800,8.177395751953124,0.3560643792152405,-0.1621863842010498,-0.004926844500005245
1687499583122451000,8.187450927734375,0.3986749053001404,-0.2005358785390854,-0.039015281945466995
1687499583132505900,8.197505859375,0.49348339438438416,-0.24101589620113373,-0.059255290776491165
1687499583142561000,8.20756103515625,0.6064013242721558,-0.2793653905391693,-0.050733182579278946
1687499583152616200,8.2176162109375,0.7321024537086487,-0.2665822207927704,-0.04008054360747337
1687499583162671400,8.22767138671875,0.8556730151176453,-0.19734008610248566,-0.03368896245956421
1687499583172726300,8.237726318359375,0.9568730592727661,-0.04181159660220146,-0.014514217153191566
1687499583182781400,8.247781494140625,1.0335720777511597,0.18722008168697357,0.007856319658458233
1687499583192836600,8.257836669921875,1.0825741291046143,0.450340211391449,0.024900536984205246
1687499583202891800,8.267891845703126,1.049551010131836,0.6048034429550171,0.20173430442810059
1687499583212946700,8.27794677734375,0.8290414214134216,0.5515402555465698,0.7237134575843811
1687499583223001900,8.288001953125,0.09827057272195816,0.6484792232513428,1.6398402452468872
1687499583233057000,8.29805712890625,-1.4357091188430786,0.9552751779556274,2.8574366569519043
1687499583243112200,8.3081123046875,-3.6802196502685547,1.151283621788025,4.0867509841918945
1687499583253167000,8.3181669921875,-6.50103759765625,1.1193257570266724,5.0593366622924805
1687499583263224800,8.328224853515625,-9.790572166442871,1.0149298906326294,5.670797824859619
1687499583273278700,8.33827880859375,-13.152544021606445,1.3430311679840088,6.017008304595947
1687499583283332600,8.34833251953125,-16.312116622924805,2.3060295581817627,6.306760311126709
1687499583293386500,8.358386474609375,-18.8250732421875,3.7356133460998535,6.85750150680542
1687499583303440400,8.3684404296875,-20.44533920288086,4.898880958557129,7.715038776397705
1687499583313494500,8.37849462890625,-20.854400634765625,5.279180526733398,8.79095458984375
1687499583323549000,8.388548828125,-19.945730209350586,4.812594890594482,10.031987190246582
1687499583333603600,8.398603515625,-17.911075592041016,3.5065815448760986,11.14944839477539
1687499583343658200,8.408658203125,-15.091323852539062,1.9385135173797607,11.752388000488281
1687499583353713400,8.41871337890625,-11.802854537963867,0.7741803526878357,11.404047012329102
1687499583363768600,8.4287685546875,-8.317312240600586,-0.02263685315847397,9.804020881652832
1687499583373824000,8.438823974609376,-4.760396957397461,-0.7459508776664734,7.127013206481934
1687499583383879700,8.448879638671874,-1.5113427639007568,-1.4468942880630493,3.816173791885376
1687499583393935600,8.458935546875,1.2903006076812744,-1.895370364189148,0.7333008646965027
1687499583403991600,8.468991455078125,3.475156307220459,-1.8144103288650513,-1.6273233890533447
1687499583414047500,8.479047607421874,5.0847697257995605,-1.555551290512085,-3.158107280731201
1687499583424103700,8.489103759765625,6.325801849365234,-1.4245238304138184,-3.9559895992279053
1687499583434159900,8.499159912109375,7.339932918548584,-1.475656509399414,-4.069972991943359
1687499583444215800,8.5092158203125,8.159120559692383,-1.559812307357788,-3.6523895263671875
1687499583454271000,8.51927099609375,8.745015144348145,-1.5811175107955933,-2.9642293453216553
1687499583464326000,8.529325927734375,9.124249458312988,-1.5619428157806396,-2.295243740081787
1687499583474381000,8.539381103515625,9.393760681152344,-1.4490249156951904,-1.8755297660827637
1687499583484436200,8.549436279296875,9.694165229797363,-1.329715371131897,-1.7753950357437134
1687499583494491400,8.559491455078126,10.176730155944824,-1.120923638343811,-2.0193402767181396
1687499583504546300,8.56954638671875,10.799908638000488,-0.86952143907547,-2.558363676071167
1687499583514601500,8.5796015625,11.394326210021973,-0.7150582075119019,-3.282742977142334
1687499583524656600,8.58965673828125,11.934414863586426,-0.7321024537086487,-4.081690788269043
1687499583534711800,8.5997119140625,12.412717819213867,-0.8620645999908447,-4.893421649932861
1687499583544766700,8.6097666015625,12.753602981567383,-1.0452899932861328,-5.586908340454102
1687499583554822000,8.61982177734375,12.896347999572754,-1.0261151790618896,-6.041775703430176
1687499583564877000,8.629876953125,12.791952133178711,-0.8428898453712463,-6.139780044555664
1687499583574932200,8.63993212890625,12.474503517150879,-0.878043532371521,-5.897965431213379
1687499583584987100,8.649987060546875,11.891804695129395,-1.08363938331604,-5.332310199737549
1687499583595042300,8.660042236328126,10.918153762817383,-1.1432942152023315,-4.351202487945557
1687499583605097500,8.670097412109374,9.54183292388916,-1.3904353380203247,-3.109105110168457
1687499583615152600,8.680152587890625,8.02702808380127,-1.795235514640808,-1.8723340034484863
1687499583625207600,8.69020751953125,6.5484418869018555,-1.686578631401062,-0.8209187984466553
1687499583635262700,8.7002626953125,5.107140064239502,-1.1496857404708862,-0.09014793485403061
1687499583645318000,8.71031787109375,3.6754257678985596,-0.4391549229621887,0.35300174355506897
1687499583655373000,8.720373046875,2.3129537105560303,0.2553969621658325,0.6022734045982361
1687499583665428000,8.730427978515625,1.103879451751709,0.8103992938995361,0.7247787714004517
1687499583675483100,8.740483154296875,0.10998847335577011,1.2247868776321411,0.7460840344429016
1687499583685538300,8.750538330078125,-0.6655234694480896,1.3781847953796387,0.710930347442627
1687499583695593500,8.760593505859376,-1.213068962097168,1.28763747215271,0.6395576596260071
1687499583705648400,8.7706484375,-1.5454312562942505,1.0511488914489746,0.5351617932319641
1687499583715703600,8.78070361328125,-1.6966986656188965,0.7496792674064636,0.4169175624847412
1687499583725758700,8.7907587890625,-1.7169386148452759,0.4066644012928009,0.31252172589302063
1687499583735814000,8.80081396484375,-1.661544919013977,0.1435442715883255,0.24967116117477417
1687499583745868800,8.810868896484376,-1.5912375450134277,0.04767054691910744,0.2336922138929367
1687499583755924000,8.820924072265624,-1.5486270189285278,0.014647374860942364,0.25606274604797363
1687499583765979100,8.830979248046875,-1.5187996625900269,-0.07483477145433426,0.2954775094985962
1687499583776034300,8.841034423828125,-1.4953638315200806,-0.14088112115859985,0.3689807057380676
1687499583786089200,8.851089111328125,-1.4900375604629517,-0.18455693125724792,0.45846283435821533
1687499583796144400,8.861144287109376,-1.5070817470550537,-0.16857796907424927,0.5074649453163147
1687499583806199600,8.871199462890624,-1.5390396118164062,-0.07696529477834702,0.48509442806243896
1687499583816254700,8.881254638671875,-1.5496922731399536,0.1339569091796875,0.3945470154285431
1687499583826309600,8.8913095703125,-1.5038859844207764,0.3683148920536041,0.2667153775691986
1687499583836364800,8.90136474609375,-1.3654016256332397,0.4577970504760742,0.13355742394924164
1687499583846420000,8.911419921875,-1.1470226049423218,0.40453386306762695,0.024900536984205246
1687499583856475100,8.92147509765625,-0.8913593292236328,0.251135915517807,-0.054994236677885056
1687499583866530000,8.931530029296875,-0.6207823753356934,0.0018642114009708166,-0.10186583548784256
1687499583876585200,8.941585205078125,-0.33955278992652893,-0.25806012749671936,-0.10293109714984894
1687499583886640400,8.951640380859375,-0.0913463607430458,-0.4679170548915863,-0.04434159770607948
1687499583896695600,8.961695556640626,0.08548741042613983,-0.5744433999061584,0.04407528415322304
1687499583906750500,8.97175048828125,0.1898832470178604,-0.5392897129058838,0.12397005409002304
1687499583916805600,8.9818056640625,0.23142851889133453,-0.3869570195674896,0.163384810090065
1687499583926860800,8.99186083984375,0.21225377917289734,-0.16005586087703705,0.15486270189285278
1687499583936916000,9.001916015625,0.15153375267982483,0.0774979293346405,0.1165132075548172
1687499583946971000,9.011970947265626,0.09720530360937119,0.16058848798274994,0.053662657737731934
1687499583957026000,9.022026123046874,0.09081372618675232,0.03914843872189522,-0.0294279083609581
1687499583967081200,9.032081298828125,0.13555480539798737,-0.17496955394744873,-0.08482161909341812
1687499583977136400,9.042136474609375,0.21118851006031036,-0.4338286221027374,-0.06990792602300644
1687499583987191300,9.05219140625,0.3123885691165924,-0.6575340032577515,-0.011318426579236984
1687499583997246500,9.06224658203125,0.42850229144096375,-0.7150582075119019,0.06431528925895691
1687499584007301600,9.072301513671874,0.5265065431594849,-0.6564686894416809,0.14314480125904083
1687499584017356800,9.082356689453125,0.5850960612297058,-0.5605949759483337,0.19960378110408783
1687499584027411700,9.09241162109375,0.6074665784835815,-0.47324338555336,0.23262694478034973
1687499584037467000,9.102466796875,0.6000097393989563,-0.47111284732818604,0.26032379269599915
1687499584047522000,9.11252197265625,0.5861613154411316,-0.5691171288490295,0.27417221665382385
1687499584057577200,9.1225771484375,0.559529721736908,-0.6990792751312256,0.3039996027946472
1687499584067632000,9.132632080078125,0.48922231793403625,-0.86952143907547,0.3977428078651428
1687499584077687300,9.142687255859375,0.35819488763809204,-1.019723653793335,0.5543365478515625
1687499584087742500,9.152742431640625,0.09294424951076508,-1.0463552474975586,0.7748461365699768
1687499584097797600,9.162797607421876,-0.4247738718986511,-0.8737825155258179,1.0869684219360352
1687499584107852500,9.1728525390625,-1.28763747215271,-0.5147886276245117,1.5247917175292969
1687499584117907700,9.18290771484375,-2.581932783126831,-0.10359688848257065,2.090446710586548
1687499584127963000,9.192962890625,-4.361988067626953,0.3970770239830017,2.659297466278076
1687499584138018000,9.20301806640625,-6.72900390625,1.0639320611953735,3.1887335777282715
1687499584148073000,9.213072998046876,-9.587106704711914,1.6263912916183472,3.626556873321533
1687499584158128000,9.223128173828124,-12.642282485961914,2.0002987384796143,3.8396096229553223
1687499584168183300,9.233183349609375,-15.694262504577637,2.3017683029174805,3.8396096229553223
1687499584178238500,9.243238525390625,-18.31800651550293,2.652240037918091,3.602055788040161
1687499584188293400,9.25329345703125,-20.241872787475586,3.286072015762329,3.2036471366882324
1687499584198348500,9.2633486328125,-21.31991958618164,4.370510578155518,2.725343942642212
1687499584208403700,9.27340380859375,-21.420055389404297,5.361205577850342,2.3216090202331543
1687499584218459000,9.283458984375,-20.438947677612305,5.577454090118408,2.3546321392059326
1687499584228513800,9.293513671875,-18.35529136657715,3.966775417327881,2.949049234390259
1687499584238569000,9.30356884765625,-15.395989418029785,1.4889723062515259,3.81510853767395
1687499584248624000,9.3136240234375,-12.031886100769043,0.029561065137386322,4.33602237701416
1687499584258679300,9.32367919921875,-8.829704284667969,-0.34434646368026733,4.211386680603027
1687499584268734200,9.333734130859375,-5.7990288734436035,-0.4913528561592102,3.681950569152832
1687499584278789400,9.343789306640625,-2.835465431213379,-0.6532729268074036,2.9245481491088867
1687499584288844500,9.353844482421875,0.09507478028535843,-1.0602036714553833,2.0339877605438232
1687499584298899700,9.363899658203126,2.7827348709106445,-1.535311222076416,1.05820631980896
1687499584308954600,9.37395458984375,5.0655951499938965,-1.8591513633728027,0.12290479242801666
1687499584319009800,9.384009765625,6.928740978240967,-1.936915636062622,-0.7037398219108582
1687499584329065000,9.39406494140625,8.4552640914917,-1.850629210472107,-1.417466402053833
1687499584339120000,9.4041201171875,9.7900390625,-1.8101491928100586,-1.9383803606033325
1687499584349175000,9.414175048828126,11.026810646057129,-1.8847177028656006,-2.2142837047576904
1687499584359230200,9.424230224609374,12.144271850585938,-2.031723976135254,-2.271807909011841
1687499584369285400,9.434285400390625,13.138162612915039,-2.19044828414917,-2.1684772968292236
1687499584379340500,9.444340576171875,14.003156661987305,-2.249037981033325,-1.960750937461853
1687499584389395500,9.4543955078125,14.707296371459961,-2.2628862857818604,-1.7242623567581177
1687499584399450600,9.46445068359375,15.186664581298828,-2.244776725769043,-1.5442328453063965
1687499584409505800,9.474505859375,15.523287773132324,-2.1137492656707764,-1.4899044036865234
1687499584419561000,9.48456103515625,15.678816795349121,-1.9060230255126953,-1.6092138290405273
1687499584429615900,9.494615966796875,15.578681945800781,-1.6972312927246094,-1.8872476816177368
1687499584439671000,9.504671142578125,15.214361190795898,-1.5235933065414429,-2.1897826194763184
1687499584449726200,9.514726318359376,14.583725929260254,-1.4096101522445679,-2.4273364543914795
1687499584459781400,9.524781494140624,13.571724891662598,-1.5012227296829224,-2.5871260166168213
1687499584469836300,9.534836181640625,12.03348445892334,-1.8548903465270996,-2.608431100845337
1687499584479891500,9.544891357421875,10.11814022064209,-2.3076274394989014,-2.4507720470428467
1687499584489946600,9.554946533203125,8.185751914978027,-2.4120233058929443,-2.1642162799835205
1687499584500001800,9.565001708984376,6.438719749450684,-1.9880483150482178,-1.770068645477295
1687499584510056700,9.575056640625,4.851477146148682,-1.1124016046524048,-1.169260025024414
1687499584520111900,9.58511181640625,3.340933084487915,-0.15046848356723785,-0.39481332898139954
1687499584530167000,9.5951669921875,2.006157636642456,0.7528750896453857,0.3274354040622711
1687499584540222200,9.60522216796875,0.9355677962303162,1.4836459159851074,0.8004124760627747
1687499584550277000,9.615277099609376,0.11318425834178925,1.8596839904785156,0.9751157164573669
1687499584560332300,9.625332275390624,-0.46205809712409973,1.731852412223816,0.9303746223449707
1687499584570387500,9.635387451171875,-0.7645930051803589,1.2162647247314453,0.7375619411468506
1687499584580442600,9.645442626953125,-0.8199867010116577,0.5153213143348694,0.43822282552719116
1687499584590497500,9.65549755859375,-0.7006771564483643,-0.0684431865811348,0.12077426165342331
1687499584600552700,9.665552734375,-0.5014728307723999,-0.3081275224685669,-0.12636689841747284
1687499584610607900,9.67560791015625,-0.3502054214477539,-0.33902016282081604,-0.2637858986854553
1687499584620663000,9.6856630859375,-0.3320959508419037,-0.2900180220603943,-0.2648511826992035
1687499584630718000,9.695718017578125,-0.4450138807296753,-0.17923060059547424,-0.16471639275550842
1687499584640773000,9.705773193359375,-0.6229129433631897,-0.026897907257080078,-0.03262370079755783
1687499584650828300,9.715828369140626,-0.8199867010116577,0.1765674501657486,0.08668582886457443
1687499584660883500,9.725883544921874,-1.03730046749115,0.4024033546447754,0.163384810090065
1687499584670938400,9.7359384765625,-1.2791153192520142,0.6090644598007202,0.20279955863952637
1687499584680993500,9.74599365234375,-1.5251911878585815,0.7400919198989868,0.21771325170993805
1687499584691048700,9.756048583984375,-1.7329176664352417,0.7454182505607605,0.21451745927333832
1687499584701103900,9.766103759765626,-1.857553482055664,0.6793718934059143,0.20493009686470032
1687499584711158800,9.77615869140625,-1.870336651802063,0.6165213584899902,0.1910816729068756
1687499584721214000,9.7862138671875,-1.7776587009429932,0.5462139248847961,0.17510271072387695
1687499584731269000,9.79626904296875,-1.597629189491272,0.4258391261100769,0.18042902648448944
1687499584741324300,9.80632421875,-1.3504879474639893,0.28735485672950745,0.21132168173789978
1687499584751379200,9.816379150390626,-1.0841721296310425,0.15845796465873718,0.24541011452674866
1687499584761434400,9.826434326171874,-0.8498140573501587,0.027430538088083267,0.2709764242172241
1687499584771489500,9.836489501953125,-0.6708498001098633,-0.07057371735572815,0.3039996027946472
1687499584781544700,9.846544677734375,-0.5611276030540466,-0.13555480539798737,0.33595752716064453
1687499584791599600,9.856599609375,-0.5089297294616699,-0.15899059176445007,0.3455449044704437
1687499584801654800,9.86665478515625,-0.48442864418029785,-0.12703268229961395,0.34447962045669556
1687499584811710000,9.8767099609375,-0.4546012580394745,-0.06524740159511566,0.35300174355506897
1687499584821765000,9.88676513671875,-0.4173170328140259,-0.015180006623268127,0.38815543055534363
1687499584831820000,9.896820068359375,-0.372575968503952,-0.029028434306383133,0.4222438633441925
1687499584841875200,9.906875244140625,-0.3086601495742798,-0.08548741042613983,0.43396177887916565
1687499584851930400,9.916930419921876,-0.23941799998283386,-0.13768532872200012,0.4126565158367157
1687499584861985500,9.926985595703124,-0.18722008168697357,-0.13768532872200012,0.36258912086486816
1687499584872040400,9.93704052734375,-0.17337165772914886,-0.13342426717281342,0.2997385561466217
1687499584882095600,9.947095703125,-0.1861548274755478,-0.17496955394744873,0.25925853848457336
1687499584892150800,9.95715087890625,-0.20639483630657196,-0.23355905711650848,0.28908592462539673
1687499584902206000,9.9672060546875,-0.23089589178562164,-0.3400854170322418,0.3849596381187439
1687499584912260900,9.9772607421875,-0.24900537729263306,-0.4764391779899597,0.4925512671470642
1687499584922316000,9.98731591796875,-0.2884201407432556,-0.6149234175682068,0.5958818197250366
1687499584932371200,9.99737109375,-0.3874896466732025,-0.7523424625396729,0.7141261100769043
1687499584942426000,10.007426025390625,-0.5952160358428955,-0.8013445734977722,0.8515450954437256
1687499584952481300,10.017481201171876,-0.9914941191673279,-0.6905571818351746,1.0390315055847168
1687499584962536200,10.0275361328125,-1.6349133253097534,-0.4636560082435608,1.2680631875991821
1687499584972591400,10.03759130859375,-2.596846342086792,-0.08974846452474594,1.5269222259521484
1687499584982646300,10.047646240234375,-3.906055450439453,0.38962018489837646,1.8209350109100342
1687499584992701400,10.057701416015625,-5.560410022735596,0.9776456952095032,2.123469829559326
1687499585002756400,10.06775634765625,-7.55245304107666,1.7137428522109985,2.4302659034729004
1687499585012811500,10.0778115234375,-9.8289213180542,2.5339958667755127,2.7359964847564697
1687499585022866400,10.087866455078125,-12.265179634094238,3.2647666931152344,3.0204219818115234
1687499585032921600,10.097921630859375,-14.63113021850586,3.6898069381713867,3.2878031730651855
1687499585042976800,10.107976806640625,-16.711589813232422,3.9646449089050293,3.4763548374176025
1687499585053031700,10.11803173828125,-18.323333740234375,4.180893421173096,3.5253567695617676
1687499585063086800,10.1280869140625,-19.42588233947754,4.428034782409668,3.4017863273620605
1687499585073141800,10.138141845703124,-20.00538444519043,4.944687366485596,3.1684935092926025
1687499585083197000,10.148197021484375,-20.024559020996094,5.417664527893066,3.0300092697143555
1687499585093251800,10.158251953125,-19.269287109375,5.085302352905273,3.1226871013641357
1687499585103307000,10.16830712890625,-17.66180419921875,3.98701548576355,3.518965244293213
1687499585113362000,10.17836181640625,-15.321420669555664,2.5158863067626953,4.129361152648926
1687499585123417000,10.1884169921875,-12.511255264282227,1.2535489797592163,4.605534076690674
1687499585133472000,10.198471923828125,-9.524255752563477,0.6314350366592407,4.6225786209106445
1687499585143527200,10.208527099609375,-6.316747188568115,0.49401602149009705,4.138948917388916
1687499585153582300,10.218582275390625,-3.017625570297241,0.2798980176448822,3.3783504962921143
1687499585163637200,10.22863720703125,0.2665822207927704,-0.2186453640460968,2.4632890224456787
1687499585173692400,10.2386923828125,3.4240236282348633,-0.9472857117652893,1.4981601238250732
1687499585183747300,10.248747314453125,6.105292320251465,-1.8122798204421997,0.6246439814567566
1687499585193802500,10.258802490234375,8.068572998046875,-2.6154885292053223,-0.07736477255821228
1687499585203857400,10.268857421875,9.437437057495117,-2.9968528747558594,-0.6440850496292114
1687499585213912600,10.27891259765625,10.386587142944336,-2.9531772136688232,-1.1266494989395142
1687499585223967500,10.288967529296874,11.063029289245605,-2.7092318534851074,-1.5335801839828491
1687499585234022700,10.299022705078125,11.555181503295898,-2.4450464248657227,-1.8542245626449585
1687499585244077600,10.30907763671875,11.952524185180664,-2.17020845413208,-2.072603464126587
1687499585254132700,10.3191328125,12.318975448608398,-1.8495639562606812,-2.1887173652648926
1687499585264188000,10.32918798828125,12.670512199401855,-1.5534206628799438,-2.2430458068847656
1687499585274242800,10.339242919921874,12.996482849121094,-1.322258472442627,-2.275003671646118
1687499585284298000,10.349298095703125,13.297952651977539,-1.1667300462722778,-2.2995047569274902
1687499585294353000,10.359352783203125,13.56852912902832,-1.1614036560058594,-2.3325278759002686
1687499585304408000,10.369407958984375,13.79649543762207,-1.2572773694992065,-2.395378351211548
1687499585314463000,10.379462890625,13.922196388244629,-1.4202626943588257,-2.5104269981384277
1687499585324518100,10.38951806640625,13.915804862976074,-1.694035530090332,-2.6638247966766357
1687499585334573000,10.399572998046875,13.766668319702148,-1.8389114141464233,-2.7895259857177734
1687499585344628200,10.409628173828125,13.394891738891602,-1.7771260738372803,-2.8640944957733154
1687499585354683400,10.419683349609375,12.657729148864746,-1.766473412513733,-2.8779428005218506
1687499585364738600,10.429738525390626,11.455046653747559,-1.86980402469635,-2.72774076461792
1687499585374793500,10.43979345703125,9.889108657836914,-1.9230672121047974,-2.3975090980529785
1687499585384848600,10.4498486328125,8.256059646606445,-1.7004270553588867,-1.9650119543075562
1687499585394903800,10.45990380859375,6.850976943969727,-1.0655299425125122,-1.5186665058135986
1687499585404959000,10.469958984375,5.691969871520996,0.07217161357402802,-1.1894999742507935
1687499585415014000,10.480013916015626,4.5840959548950195,1.2322437763214111,-0.9210535883903503
1687499585425069000,10.490069091796874,3.405914068222046,1.9033597707748413,-0.554602861404419
1687499585435124200,10.500124267578125,2.2458419799804688,2.0439746379852295,-0.13062795996665955
1687499585445179400,10.510179443359375,1.217862606048584,1.9182734489440918,0.20279955863952637
1687499585455234300,10.520234375,0.3784348964691162,1.619999647140503,0.40519964694976807
1687499585465289500,10.53028955078125,-0.261788547039032,1.1725889444351196,0.4872249662876129
1687499585475344600,10.5403447265625,-0.7081339955329895,0.75180983543396,0.44354915618896484
1687499585485399800,10.55039990234375,-0.9467530846595764,0.5558013319969177,0.32530489563941956
1687499585495454700,10.560454833984375,-1.049018383026123,0.5909550189971924,0.2720417082309723
1687499585505510000,10.570510009765625,-1.1044120788574219,0.6111950278282166,0.30719539523124695
1687499585515565000,10.58056494140625,-1.1353046894073486,0.6154560446739197,0.39135122299194336
1687499585525620200,10.5906201171875,-1.1470226049423218,0.6314350366592407,0.47976812720298767
1687499585535675100,10.600675048828125,-1.1470226049423218,0.6410223841667175,0.5681849718093872
1687499585545730300,10.610730224609375,-1.1502183675765991,0.5781718492507935,0.6502103209495544
1687499585555785500,10.620785400390625,-1.1566100120544434,0.4269044101238251,0.7045387625694275
1687499585565840600,10.630840576171876,-1.1480878591537476,0.22663484513759613,0.7290397882461548
1687499585575895600,10.6408955078125,-1.1257174015045166,0.0913463607430458,0.7407577037811279
1687499585585950700,10.65095068359375,-1.0905636548995972,0.03488738462328911,0.7673892974853516
1687499585596006000,10.661005859375,-1.0586057901382446,0.05086633935570717,0.7769766449928284
1687499585606061000,10.67106103515625,-1.0096036195755005,0.13076111674308777,0.7503450512886047
1687499585616116000,10.681115966796876,-0.9392961859703064,0.22450430691242218,0.6992124319076538
1687499585626171100,10.691171142578124,-0.8402267098426819,0.2553969621658325,0.6246439814567566
1687499585636226300,10.701226318359375,-0.7251782417297363,0.2234390527009964,0.5383576154708862
1687499585646281500,10.711281494140625,-0.6346307992935181,0.16484954953193665,0.42437440156936646
1687499585656336400,10.72133642578125,-0.588824450969696,0.07217161357402802,0.296542763710022
1687499585666391600,10.7313916015625,-0.5813676118850708,-0.03968106955289841,0.22943115234375
1687499585676446700,10.74144677734375,-0.6154560446739197,-0.1994706094264984,0.23262694478034973
1687499585686502000,10.751501953125,-0.6282392144203186,-0.36671701073646545,0.275237500667572
1687499585696556800,10.761556884765625,-0.5760413408279419,-0.44128546118736267,0.3274354040622711
1687499585706612000,10.771612060546875,-0.4780370593070984,-0.3091927766799927,0.3945470154285431
1687499585716667100,10.781667236328126,-0.35233595967292786,-0.11638005077838898,0.4595280885696411
1687499585726722300,10.791722412109374,-0.2745717167854309,-0.02157158963382244,0.407330185174942
1687499585736777200,10.801777099609374,-0.20319904386997223,0.10839057713747025,0.3380880355834961
1687499585746832400,10.811832275390625,-0.07110634446144104,0.19148114323616028,0.36791542172431946
1687499585756887600,10.821887451171875,0.05566002428531647,0.029561065137386322,0.40626493096351624
1687499585766942700,10.831942626953126,0.105727419257164,-0.3134538233280182,0.35406699776649475
1687499585776997600,10.84199755859375,0.1249021589756012,-0.5978792309761047,0.2432795912027359
1687499585787052800,10.852052734375,0.17923060059547424,-0.7406245470046997,0.14847111701965332
1687499585797108000,10.86210791015625,0.24421168863773346,-0.6713824272155762,0.07283740490674973
1687499585807163000,10.872162841796875,0.28256118297576904,-0.481765478849411,-0.0006657897611148655
1687499585817218000,10.882218017578126,0.27830013632774353,-0.2878875136375427,-0.06884266436100006
1687499585827273000,10.89227294921875,0.22929799556732178,-0.13129374384880066,-0.11464899778366089
1687499585837328100,10.902328125,0.13022847473621368,-0.01837579719722271,-0.14767217636108398
1687499585847383000,10.912383056640625,-0.0050600022077560425,0.06151897460222244,-0.18282587826251984
1687499585857438200,10.922438232421875,-0.12756532430648804,0.0540621280670166,-0.2083922028541565
1687499585867496200,10.93249609375,-0.1723063886165619,-0.11424952745437622,-0.1849564015865326
1687499585877548500,10.942548583984374,-0.1296958476305008,-0.34221595525741577,-0.07097318768501282
1687499585887600600,10.9526005859375,-0.040213704109191895,-0.5201149582862854,0.13355742394924164
1687499585897653200,10.9626533203125,0.05779055133461952,-0.6266413331031799,0.4137217700481415
1687499585907706000,10.9727060546875,0.13342426717281342,-0.7416898012161255,0.7418229579925537
1687499585917759200,10.98275927734375,0.13555480539798737,-0.8684561848640442,1.0848379135131836
1687499585927812900,10.992812744140625,0.023702116683125496,-1.0399636030197144,1.3958948850631714
1687499585937866800,11.00286669921875,-0.22237378358840942,-1.212536334991455,1.6600801944732666
1687499585947921400,11.01292138671875,-0.6410223841667175,-1.2934963703155518,1.8827203512191772
1687499585957976600,11.0229765625,-1.3068121671676636,-1.2285152673721313,2.0968382358551025
1687499585968032000,11.033031982421875,-2.314551591873169,-0.9504814743995667,2.3599584102630615
1687499585978088000,11.043087890625,-3.7196342945098877,-0.4455465078353882,2.733865976333618
1687499585988144000,11.05314404296875,-5.434708595275879,-0.05566002428531647,3.146122932434082
1687499585998200800,11.063200927734375,-7.339400291442871,0.20639483630657196,3.5754241943359375
1687499586008257800,11.0732578125,-9.39535903930664,0.6815024018287659,4.008986473083496
1687499586018314800,11.083314697265624,-11.68674087524414,1.1640667915344238,4.307260513305664
1687499586028372000,11.0933720703125,-14.13045597076416,1.1054773330688477,4.327500343322754
1687499586038429000,11.103428955078124,-16.552865982055664,0.9478183388710022,4.005790710449219
1687499586048484600,11.113484619140625,-18.547039031982422,1.2567447423934937,3.230278730392456
1687499586058539800,11.123539794921875,-19.902053833007812,1.485776424407959,1.9413098096847534
1687499586068594700,11.1335947265625,-20.51351547241211,1.731852412223816,0.5532712936401367
1687499586078649900,11.14364990234375,-20.469839096069336,2.0397136211395264,-0.390552282333374
1687499586088704800,11.153704833984374,-19.491928100585938,1.8042902946472168,-0.4960133731365204
1687499586098760000,11.163760009765625,-17.212263107299805,1.978993535041809,0.8163914084434509
1687499586108814800,11.17381494140625,-14.120868682861328,2.48712420463562,3.2728893756866455
1687499586118870000,11.1838701171875,-11.013494491577148,2.4594273567199707,5.427917957305908
1687499586128925000,11.193925048828126,-7.917838096618652,2.423208475112915,6.2289958000183105
1687499586138980000,11.20397998046875,-4.584628582000732,2.2378525733947754,5.575989246368408
1687499586149035300,11.21403515625,-1.175784707069397,1.5496922731399536,3.9834201335906982
1687499586159090200,11.224090087890625,2.139315605163574,0.3555317521095276,2.0734024047851562
1687499586169145300,11.234145263671875,4.994222164154053,-0.9121319651603699,0.17936377227306366
1687499586179200300,11.2442001953125,7.225949764251709,-1.7057534456253052,-1.4195969104766846
1687499586189255400,11.25425537109375,8.914392471313477,-1.9987008571624756,-2.554102659225464
1687499586199310300,11.264310302734375,10.235319137573242,-2.045572519302368,-3.258241891860962
1687499586209365500,11.274365478515625,11.339998245239258,-2.10522723197937,-3.6374759674072266
1687499586219420400,11.28442041015625,12.342411041259766,-2.259690523147583,-3.8100485801696777
1687499586229475600,11.2944755859375,13.2681245803833,-2.4450464248657227,-3.8910086154937744
1687499586239530500,11.304530517578126,14.04150676727295,-2.6059012413024902,-3.9389455318450928
1687499586249585700,11.314585693359374,14.597574234008789,-2.6676864624023438,-3.9836864471435547
1687499586259640800,11.324640869140625,14.854302406311035,-2.521745443344116,-4.07742977142334
1687499586269695700,11.33469580078125,14.818083763122559,-2.25542950630188,-4.263850688934326
1687499586279751000,11.3447509765625,14.49743938446045,-1.9315892457962036,-4.558928966522217
1687499586289805800,11.354805908203126,13.908348083496094,-1.5161365270614624,-4.965859413146973
1687499586299861000,11.364861083984374,13.073182106018066,-1.111336350440979,-5.431379795074463
1687499586309916000,11.374916015625,12.050528526306152,-0.8599340915679932,-5.866007328033447
1687499586319971000,11.38497119140625,10.922414779663086,-0.7747129797935486,-6.187716960906982
1687499586330026000,11.39502587890625,9.74955940246582,-0.915327787399292,-6.335788726806641
1687499586340081200,11.4050810546875,8.566051483154297,-1.4149364233016968,-6.151497840881348
1687499586350136000,11.415135986328124,7.355911731719971,-2.0082883834838867,-5.4185967445373535
1687499586360191200,11.425191162109375,6.079725742340088,-2.3076274394989014,-4.023101329803467
1687499586370246400,11.435246337890625,4.8024749755859375,-2.225602149963379,-2.2579593658447266
1687499586380301300,11.44530126953125,3.654120683670044,-1.7963007688522339,-0.5428850054740906
1687499586390356500,11.4553564453125,2.671947479248047,-0.8993488550186157,0.7258440256118774
1687499586400411400,11.465411376953124,1.7398418188095093,0.07110634446144104,1.3713937997817993
1687499586410466600,11.475466552734375,0.8258456587791443,0.7411571741104126,1.5215959548950195
1687499586420521500,11.485521484375,0.016245270147919655,0.9520793557167053,1.3500884771347046
1687499586430576600,11.49557666015625,-0.6207823753356934,0.7805719375610352,1.020922064781189
1687499586440631600,11.505631591796876,-1.0309089422225952,0.49934232234954834,0.6842987537384033
1687499586450686700,11.515686767578124,-1.1949595212936401,0.2671148478984833,0.3945470154285431
1687499586460741600,11.52574169921875,-1.1395658254623413,0.17763271927833557,0.17510271072387695
1687499586470796800,11.535796875,-0.9584709405899048,0.19893798232078552,0.07283740490674973
1687499586480852000,11.54585205078125,-0.768854022026062,0.22450430691242218,0.09627319872379303
1687499586490907000,11.555906982421876,-0.638891875743866,0.1808284968137741,0.22943115234375
1687499586500962000,11.565962158203124,-0.5781718492507935,0.08388951420783997,0.40200385451316833
1687499586511017000,11.576016845703125,-0.5834981799125671,-0.027963170781731606,0.52237868309021
1687499586521072000,11.586072021484375,-0.6399571299552917,-0.2324937880039215,0.5404881238937378
1687499586531127000,11.596126953125,-0.6857634782791138,-0.49774444103240967,0.48189863562583923
1687499586541182200,11.60618212890625,-0.70174241065979,-0.6831002831459045,0.3934817612171173
1687499586551237000,11.616237060546876,-0.6985466480255127,-0.6788392663002014,0.30613014101982117
1687499586561292300,11.626292236328124,-0.6985466480255127,-0.5169191956520081,0.22730062901973724
1687499586571347500,11.636347412109375,-0.7113298177719116,-0.303866446018219,0.18042902648448944
1687499586581402400,11.64640234375,-0.7539403438568115,-0.0727042406797409,0.20173430442810059
1687499586591457500,11.65645751953125,-0.8135951161384583,0.08495477586984634,0.2677806615829468
1687499586601512400,11.666512451171876,-0.8370308876037598,0.06684529036283493,0.3199785649776459
1687499586611567600,11.676567626953124,-0.7709845304489136,-0.11105373501777649,0.33915331959724426
1687499586621622500,11.68662255859375,-0.647413969039917,-0.2900180220603943,0.32637014985084534
1687499586631677700,11.696677734375,-0.5121254920959473,-0.3922833502292633,0.294412225484848
1687499586641732600,11.706732666015625,-0.3970770239830017,-0.3826959729194641,0.26032379269599915
1687499586651787800,11.716787841796876,-0.3075948655605316,-0.3081275224685669,0.24008379876613617
1687499586661842700,11.7268427734375,-0.2607232630252838,-0.21225377917289734,0.24434484541416168
1687499586671897900,11.73689794921875,-0.2372874766588211,-0.15153375267982483,0.2720417082309723
1687499586681953000,11.746953125,-0.1957421898841858,-0.10359688848257065,0.3199785649776459
1687499586692008000,11.757008056640625,-0.13289164006710052,-0.048203181475400925,0.38176384568214417
1687499586702063000,11.76706298828125,-0.08388951420783997,-0.0918789878487587,0.43289652466773987
1687499586712118000,11.777117919921874,-0.03169159218668938,-0.2516685426235199,0.4605933725833893
1687499586722173200,11.787173095703125,0.04607265070080757,-0.42743703722953796,0.46698495745658875
1687499586732228000,11.79722802734375,0.15899059176445007,-0.49987494945526123,0.46165862679481506
1687499586742283300,11.807283203125,0.27297380566596985,-0.49454864859580994,0.4605933725833893
1687499586752338200,11.817338134765626,0.3741738498210907,-0.48496127128601074,0.4659196734428406
1687499586762393300,11.827393310546874,0.4444812536239624,-0.4764391779899597,0.4787028431892395
1687499586772448300,11.8374482421875,0.4530033767223358,-0.5233107805252075,0.5255744457244873
1687499586782503400,11.84750341796875,0.34328120946884155,-0.5904223918914795,0.6534060835838318
1687499586792558600,11.85755859375,0.05352949723601341,-0.6170539855957031,0.862197756767273
1687499586802613500,11.867613525390626,-0.5281044244766235,-0.5350286364555359,1.1167957782745361
1687499586812668700,11.877668701171874,-1.4239912033081055,-0.37097805738449097,1.3937642574310303
1687499586822723600,11.8877236328125,-2.5936505794525146,0.00612526573240757,1.6377097368240356
1687499586832778800,11.89777880859375,-4.014712333679199,0.5962813496589661,1.883785605430603
1687499586842833700,11.907833740234375,-5.600889682769775,1.2439615726470947,2.188451051712036
1687499586852888800,11.917888916015626,-7.232873916625977,1.924665093421936,2.526139497756958
1687499586862943700,11.92794384765625,-8.874444961547852,2.6021728515625,2.805238723754883
1687499586872999000,11.9379990234375,-10.583127975463867,3.2392003536224365,3.0001819133758545
1687499586883053800,11.9480537109375,-12.304594039916992,3.5864763259887695,3.110969305038452
1687499586893109000,11.95810888671875,-13.933382034301758,3.649326801300049,3.140796661376953
1687499586903164200,11.9681640625,-15.397054672241211,3.499124765396118,3.204712390899658
1687499586913219000,11.978218994140626,-16.38987922668457,3.0762150287628174,3.424156904220581
1687499586923274200,11.988274169921874,-16.809593200683594,2.8216171264648438,3.924830675125122
1687499586933329200,11.9983291015625,-16.663652420043945,2.796050786972046,4.698212146759033
1687499586943384300,12.00838427734375,-16.00105857849121,2.522278070449829,5.624991416931152
1687499586953439200,12.018439208984375,-14.91448974609375,2.0439746379852295,6.5794677734375
1687499586963494400,12.028494384765626,-13.516863822937012,1.6508923768997192,7.394394397735596
1687499586973549300,12.03854931640625,-11.834813117980957,1.111868977546692,7.694798946380615
1687499586983604500,12.0486044921875,-9.775657653808594,0.6676539778709412,7.262301921844482
1687499586993659400,12.058659423828125,-7.358574867248535,0.3278348743915558,6.108621120452881
1687499587003714600,12.068714599609375,-4.7081990242004395,-0.052464235574007034,4.334957122802734
1687499587013769700,12.078769775390626,-2.010951519012451,-0.45619916915893555,2.0872509479522705
1687499587023824600,12.08882470703125,0.5946834087371826,-0.8450203537940979,-0.3692470192909241
1687499587033879800,12.0988798828125,2.9627645015716553,-1.262603759765625,-2.691521644592285
1687499587043934700,12.108934814453125,5.0400285720825195,-1.6801871061325073,-4.545080661773682
1687499587053990000,12.118989990234375,6.888260841369629,-2.0881831645965576,-5.764807224273682
1687499587064044800,12.129044921875,8.575638771057129,-2.5249412059783936,-6.39863920211792
1687499587074100000,12.139099853515624,10.116009712219238,-2.895653009414673,-6.592517375946045
1687499587084155000,12.14915478515625,11.479547500610352,-3.06929087638855,-6.4455108642578125
1687499587094210000,12.1592099609375,12.64920711517334,-3.1300108432769775,-6.010883331298828
1687499587104265200,12.16926513671875,13.624988555908203,-3.2003183364868164,-5.403683185577393
1687499587114320100,12.179320068359376,14.402630805969238,-3.2695603370666504,-4.8380279541015625
1687499587124375300,12.189375244140624,14.9555025100708,-3.22694993019104,-4.4758381843566895
1687499587134430200,12.19943017578125,15.267624855041504,-2.959568738937378,-4.399139404296875
1687499587144485400,12.2094853515625,15.374151229858398,-2.606966495513916,-4.5898213386535645
1687499587154540300,12.219540283203125,15.315561294555664,-2.3576948642730713,-4.920053482055664
1687499587164595500,12.229595458984376,15.016222953796387,-2.1148147583007812,-5.194891452789307
1687499587174650400,12.239650390625,14.3397798538208,-1.8026924133300781,-5.302483081817627
1687499587184705500,12.24970556640625,13.129640579223633,-1.5246585607528687,-5.216196537017822
1687499587194760400,12.259760498046875,11.296321868896484,-1.488439679145813,-4.888095378875732
1687499587204815600,12.269815673828125,9.034767150878906,-1.718536615371704,-4.20526123046875
1687499587214870800,12.279870849609376,6.656033515930176,-1.6237281560897827,-3.2209577560424805
1687499587224925700,12.28992578125,4.593683242797852,-0.8428898453712463,-2.1397151947021484
1687499587234980900,12.29998095703125,2.894587516784668,0.2522011697292328,-1.0616683959960938
1687499587245035800,12.310035888671875,1.5076143741607666,1.1555447578430176,-0.08801741153001785
1687499587255091000,12.320091064453125,0.360325425863266,1.7648755311965942,0.660862922668457
1687499587265145900,12.330145751953125,-0.563258171081543,1.920404076576233,1.092294692993164
1687499587275201000,12.340200927734376,-1.2183952331542969,1.5422354936599731,1.256345272064209
1687499587285256000,12.350255859375,-1.5507575273513794,0.8594014644622803,1.25101900100708
1687499587295311000,12.36031103515625,-1.5443660020828247,0.2713759243488312,1.1263831853866577
1687499587305366000,12.370365966796875,-1.2642016410827637,-0.019441060721874237,0.9207872748374939
1687499587315421200,12.380421142578125,-0.8668583035469055,-0.12703268229961395,0.6885597705841064
1687499587325476400,12.390476318359376,-0.5249086618423462,-0.15046848356723785,0.48189863562583923
1687499587335531300,12.40053125,-0.3555317521095276,-0.11105373501777649,0.35513225197792053
1687499587345586400,12.41058642578125,-0.3502054214477539,-0.052464235574007034,0.3146522343158722
1687499587355641300,12.420641357421875,-0.43755704164505005,-0.05992107838392258,0.3189133107662201
1687499587365696500,12.430696533203125,-0.5579318404197693,-0.1153147891163826,0.33063119649887085
1687499587375751400,12.44075146484375,-0.6889592409133911,-0.12703268229961395,0.3338269889354706
1687499587385806600,12.450806640625,-0.8306393027305603,-0.06205160543322563,0.3274354040622711
1687499587395861500,12.460861572265625,-0.9669930934906006,0.07536740601062775,0.32104381918907166
1687499587405916700,12.470916748046875,-1.066062569618225,0.22663484513759613,0.29760801792144775
1687499587415971600,12.4809716796875,-1.0948246717453003,0.3789675533771515,0.24967116117477417
1687499587426026800,12.49102685546875,-1.0479531288146973,0.504668653011322,0.20706062018871307
1687499587436082000,12.50108203125,-0.9552751779556274,0.5291697382926941,0.17936377227306366
1687499587446136800,12.51113671875,-0.8412919640541077,0.4822981059551239,0.15699322521686554
1687499587456192000,12.52119189453125,-0.7219824194908142,0.4024033546447754,0.1346226930618286
1687499587466247000,12.531246826171875,-0.593085527420044,0.3129211962223053,0.11331742256879807
1687499587476302000,12.541302001953126,-0.43223071098327637,0.22130851447582245,0.07603318989276886
1687499587486357000,12.55135693359375,-0.24474431574344635,0.12223900109529495,0.024900536984205246
1687499587496412200,12.561412109375,-0.07536740601062775,0.019973693415522575,-0.011318426579236984
1687499587506467000,12.571467041015625,0.05033370852470398,-0.08442214131355286,-0.02516685426235199
1687499587516522200,12.581522216796875,0.14088112115859985,-0.1675127148628235,-0.026232117787003517
1687499587526577200,12.5915771484375,0.21012325584888458,-0.19734008610248566,-0.013448953628540039
1687499587536632300,12.60163232421875,0.2527337968349457,-0.2143843024969101,0.024900536984205246
1687499587546687500,12.6116875,0.26871275901794434,-0.25912538170814514,0.07816372066736221
1687499587556742400,12.621742431640625,0.2697780132293701,-0.30599698424339294,0.11864373832941055
1687499587566797600,12.631797607421875,0.27297380566596985,-0.2889527678489685,0.11970899999141693
1687499587576852500,12.6418525390625,0.26764747500419617,-0.1952095627784729,0.09414267539978027
1687499587586909700,12.65190966796875,0.23888537287712097,-0.07590003311634064,0.05792371183633804
1687499587596963300,12.66196337890625,0.17390428483486176,0.04554001986980438,0.024900536984205246
1687499587607017000,12.672016845703125,0.08548741042613983,0.1478053331375122,0.004660528618842363
1687499587617070600,12.682070556640625,0.008788425475358963,0.19361166656017303,0.030226856470108032
1687499587627124500,12.69212451171875,-0.02210422046482563,0.16165375709533691,0.1399490088224411
