time,seconds_elapsed,z,y,x
1687502524584963600,0.115963623046875,-0.6295707821846008,0.1464737504720688,0.5032039284706116
1687502524594855000,0.12585498046875,-0.5890907645225525,-0.009054740890860558,0.44781020283699036
1687502524604784400,0.135784423828125,-0.5230444669723511,-0.11132004857063293,0.3838943839073181
1687502524614755300,0.14575537109375,-0.4324970245361328,-0.18056218326091766,0.296542763710022
1687502524624770000,0.15577001953125,-0.34088435769081116,-0.25726115703582764,0.1676458716392517
1687502524634827800,0.165827880859375,-0.28442537784576416,-0.400006502866745,0.005725792143493891
1687502524644927000,0.175927001953125,-0.2631201148033142,-0.4894886314868927,-0.12636689841747284
1687502524655064000,0.18606396484375,-0.2577938139438629,-0.43942126631736755,-0.17217323184013367
1687502524665234200,0.196234130859375,-0.24714116752147675,-0.30839383602142334,-0.1806953400373459
1687502524675431700,0.206431640625,-0.2077264040708542,-0.16138744354248047,-0.16897743940353394
1687502524685631700,0.2166318359375,-0.1502021700143814,0.004793686326593161,-0.146606907248497
1687502524695831800,0.226831787109375,-0.08735162019729614,0.03675159439444542,-0.1892174482345581
1687502524706031900,0.237031982421875,-0.04367581009864807,0.033555805683135986,-0.24035011231899261
1687502524716231700,0.247231689453125,0.006391582079231739,0.06657897680997849,-0.212653249502182
1687502524726357500,0.257357421875,0.066046342253685,0.07829687744379044,-0.11358373612165451
1687502524736412200,0.267412109375,0.0894821435213089,0.1464737504720688,0.06538055837154388
1687502524746466800,0.277466796875,0.066046342253685,0.28815382719039917,0.28375959396362305
1687502524756521200,0.287521240234375,0.005326318088918924,0.5651223659515381,0.5063996911048889
1687502524766575900,0.297575927734375,0.0010652636410668492,0.7930887937545776,0.6491450071334839
1687502524776630500,0.307630615234375,-0.02769685536623001,0.8218508958816528,0.6992124319076538
1687502524786685200,0.317685302734375,-0.08309056609869003,0.6673876643180847,0.7151913642883301
1687502524796739600,0.327739501953125,-0.1363537460565567,0.3446127772331238,0.6289049983024597
1687502524806794200,0.337794189453125,-0.16085481643676758,-0.08575372397899628,0.4701807498931885
1687502524816849000,0.347848876953125,-0.1416800618171692,-0.49161916971206665,0.3572627902030945
1687502524826903300,0.3579033203125,-0.06498108059167862,-0.6663224101066589,0.3380880355834961
1687502524836958000,0.3679580078125,0.07882951200008392,-0.5896234512329102,0.38602492213249207
1687502524847012600,0.3780126953125,0.22477063536643982,-0.4617917835712433,0.46272388100624084
1687502524857067300,0.3880673828125,0.3142527639865875,-0.38722333312034607,0.5511407852172852
1687502524867121700,0.39812158203125,0.39840859174728394,-0.25086960196495056,0.6544713377952576
1687502524877176300,0.40817626953125,0.5230444669723511,-0.1603221744298935,0.7343661189079285
1687502524887231000,0.41823095703125,0.5219792127609253,-0.12410321086645126,0.8334356546401978
1687502524897285400,0.428285400390625,0.4197138845920563,-0.14221268892288208,0.8760461807250977
1687502524907340000,0.438340087890625,0.32597067952156067,-0.07403582334518433,0.7886945605278015
1687502524917394700,0.448394775390625,0.25140222907066345,-0.0015978955198079348,0.6395576596260071
1687502524927449300,0.458449462890625,0.19494324922561646,-0.010120004415512085,0.48189863562583923
1687502524937503700,0.468503662109375,0.18961693346500397,-0.16564849019050598,0.3274354040622711
1687502524947558400,0.478558349609375,0.22796641290187836,-0.17097482085227966,0.15273217856884003
1687502524957613000,0.488613037109375,0.25672852993011475,-0.009054740890860558,-0.028362644836306572
1687502524967667500,0.49866748046875,0.13315795361995697,0.3147853910923004,-0.14554163813591003
1687502524977722000,0.50872216796875,-0.1597895473241806,0.3850927948951721,-0.18282587826251984
1687502524987776800,0.51877685546875,-0.3962780833244324,0.49268442392349243,-0.0858868807554245
1687502524997831400,0.52883154296875,-0.5294360518455505,0.7099981904029846,0.08988162130117416
1687502525007885800,0.5388857421875,-0.6061350107192993,0.8154593110084534,0.29228171706199646
1687502525017940500,0.5489404296875,-0.6562023758888245,0.7739140391349792,0.45633232593536377
1687502525027995100,0.5589951171875,-0.657267689704895,0.6865624189376831,0.5745765566825867
1687502525038049800,0.5690498046875,-0.5965476632118225,0.4884233772754669,0.6640587449073792
1687502525048104200,0.579104248046875,-0.4857602119445801,0.1645832359790802,0.7439534664154053
1687502525058158800,0.589158935546875,-0.35579806566238403,-0.11132004857063293,0.8046735525131226
1687502525068213500,0.599213623046875,-0.23329274356365204,-0.21571588516235352,0.8068040609359741
1687502525078268000,0.609267822265625,-0.13954953849315643,-0.15606112778186798,0.7407577037811279
1687502525088322600,0.619322509765625,-0.0894821435213089,0.022903168573975563,0.6054692268371582
1687502525098377200,0.629377197265625,-0.08841688185930252,0.23702116310596466,0.43396177887916565
1687502525108432000,0.639431884765625,-0.13209268450737,0.3051980435848236,0.2805638015270233
1687502525118486300,0.649486328125,-0.15446323156356812,0.11877689510583878,0.17510271072387695
1687502525128541000,0.659541015625,-0.11185268312692642,-0.17310534417629242,0.12503531575202942
1687502525138595600,0.669595703125,-0.023435799404978752,-0.3584612011909485,0.11438268423080444
1687502525148650000,0.67964990234375,0.10652636736631393,-0.31265488266944885,0.1069258376955986
1687502525158704600,0.68970458984375,0.2577938139438629,-0.033555805683135986,0.04194475710391998
1687502525168759300,0.69975927734375,0.377103328704834,0.1880190372467041,-0.09227846562862396
1687502525178814000,0.70981396484375,0.5422192215919495,0.6801708340644836,-0.3074617087841034
1687502525188868400,0.719868408203125,0.7275750637054443,1.7188029289245605,-0.5460807681083679
1687502525198923000,0.729923095703125,0.8319709300994873,1.5270553827285767,-0.5386239290237427
1687502525208977700,0.739977783203125,0.8820382952690125,0.26471802592277527,-0.2637858986854553
1687502525219032000,0.750031982421875,0.8809730410575867,-0.8996151685714722,0.04407528415322304
1687502525229086700,0.760086669921875,0.9725856781005859,-0.9795098900794983,0.15805849432945251
1687502525239141400,0.770141357421875,1.0652636289596558,-0.49268442392349243,0.18788588047027588
1687502525249196000,0.780196044921875,1.0205225944519043,-0.1688442826271057,0.2486059069633484
1687502525259250400,0.79025048828125,0.9118656516075134,-0.15606112778186798,0.35939332842826843
1687502525269305000,0.80030517578125,0.829840362071991,-0.2721748650074005,0.4424838721752167
1687502525279359700,0.81035986328125,0.7637940049171448,-0.39254966378211975,0.5362271070480347
1687502525289414400,0.820414306640625,0.6540718674659729,-0.5427518486976624,0.6566019058227539
1687502525299469000,0.830468994140625,0.4942823350429535,-0.6194508075714111,0.7514103651046753
1687502525309523700,0.840523681640625,0.30253487825393677,-0.5193160176277161,0.8536756634712219
1687502525319578400,0.850578369140625,0.03728422895073891,-0.3488738536834717,0.9804420471191406
1687502525329632800,0.8606328125,-0.33662331104278564,-0.18695376813411713,1.0784462690353394
1687502525339687400,0.8706875,-0.754206657409668,0.15393058955669403,1.1274484395980835
1687502525349742000,0.8807421875,-1.0450236797332764,0.7558045387268066,1.1306442022323608
1687502525359796700,0.890796630859375,-1.1962910890579224,1.2639353275299072,1.1444926261901855
1687502525369851400,0.900851318359375,-1.2687289714813232,1.440769076347351,1.2030820846557617
1687502525379906000,0.910906005859375,-1.2367711067199707,1.2681963443756104,1.2659326791763306
1687502525389960700,0.920960693359375,-1.105743646621704,0.8239814043045044,1.3564801216125488
1687502525400015400,0.931015380859375,-0.8884298801422119,0.27004432678222656,1.5215959548950195
1687502525410070000,0.941070068359375,-0.6072002649307251,-0.20080219209194183,1.7389097213745117
1687502525420124700,0.951124755859375,-0.3536675274372101,-0.5214465260505676,1.9860508441925049
1687502525430179300,0.961179443359375,-0.2024000883102417,-0.7408908605575562,2.212952136993408
1687502525440234000,0.97123388671875,-0.15765902400016785,-0.9656614661216736,2.387655258178711
1687502525450288600,0.98128857421875,-0.188551664352417,-1.0604699850082397,2.5250742435455322
1687502525460343000,0.991343017578125,-0.24714116752147675,-1.0338383913040161,2.6284048557281494
1687502525470397700,1.001397705078125,-0.3249054253101349,-0.8953540921211243,2.70084285736084
1687502525480452400,1.011452392578125,-0.3813643753528595,-0.7600656151771545,2.740257501602173
1687502525490507000,1.021507080078125,-0.3536675274372101,-0.7419561147689819,2.778607130050659
1687502525500561700,1.031561767578125,-0.2727074921131134,-0.7153245210647583,2.8521101474761963
1687502525510616300,1.0416162109375,-0.15765902400016785,-0.6130592226982117,2.949049234390259
1687502525520671000,1.0516708984375,0.012783164158463478,-0.5629918575286865,3.0790114402770996
1687502525530725600,1.0617255859375,0.18642114102840424,-0.5555350184440613,3.2324094772338867
1687502525540780300,1.0717802734375,0.4197138845920563,-0.532099187374115,3.3911335468292236
1687502525550835000,1.0818349609375,0.657267689704895,-0.5310339331626892,3.6063168048858643
1687502525560889600,1.0918896484375,0.817057192325592,-0.2828274965286255,3.91524338722229
1687502525570944300,1.1019443359375,0.8799077868461609,-0.027164222672581673,4.236952781677246
1687502525580998700,1.11199853515625,0.6476802825927734,-0.9688572883605957,4.439352989196777
1687502525591053300,1.12205322265625,-0.004261054564267397,-1.277783751487732,3.770367383956909
1687502525601108000,1.13210791015625,-0.791490912437439,1.022120475769043,-0.40333545207977295
1687502525611162600,1.14216259765625,-1.6980302333831787,1.9797924757003784,-9.054341316223145
1687502525621217300,1.15221728515625,-2.7121613025665283,2.3782010078430176,-18.73971939086914
1687502525631272000,1.16227197265625,-3.417365789413452,3.8035237789154053,-25.24847984313965
1687502525641326600,1.17232666015625,-3.3758203983306885,3.9068543910980225,-28.314308166503906
1687502525651381200,1.18238134765625,-1.822666049003601,2.4932496547698975,-28.241870880126953
1687502525661436000,1.192435791015625,2.262619972229004,-3.8013932704925537,-21.386898040771484
1687502525671490600,1.202490478515625,5.88451623916626,-12.091275215148926,-7.511839866638184
1687502525681545200,1.212545166015625,5.89197301864624,-14.249499320983887,4.630035400390625
1687502525691600000,1.222599853515625,1.7566196918487549,-8.894418716430664,9.070054054260254
1687502525701654500,1.232654541015625,-3.870102882385254,-1.636777639389038,8.867653846740723
1687502525711709000,1.242708984375,-6.4917168617248535,4.3180460929870605,8.68762493133545
1687502525721763600,1.252763671875,-6.393712520599365,6.562556743621826,9.328912734985352
1687502525731818200,1.262818359375,-5.005673885345459,5.405680179595947,10.003225326538086
1687502525741873000,1.272872802734375,-3.1190919876098633,3.036534070968628,10.0575532913208
1687502525751927600,1.282927490234375,-1.458345890045166,1.2298468351364136,9.392828941345215
1687502525761982200,1.292982177734375,-0.2620548605918884,0.4884233772754669,8.306260108947754
1687502525772036900,1.303036865234375,0.3195790946483612,-0.0282294861972332,7.114230155944824
1687502525782091500,1.313091552734375,0.4324970245361328,-0.17949692904949188,5.791172504425049
1687502525792146200,1.323146240234375,0.32170963287353516,-0.061252661049366,4.468115329742432
1687502525802200800,1.333200927734375,0.08522108942270279,0.28069695830345154,3.235605239868164
1687502525812255500,1.34325537109375,-0.042610544711351395,0.7430213689804077,2.2012341022491455
1687502525822310100,1.35331005859375,-0.009587372653186321,0.8644614219665527,1.3958948850631714
1687502525832364500,1.363364501953125,0.09800425171852112,0.5928192138671875,0.7588672041893005
1687502525842419200,1.373419189453125,0.2812296152114868,0.28389275074005127,0.25606274604797363
1687502525852473900,1.383473876953125,0.5060002207756042,0.06338318437337875,-0.08375635743141174
1687502525862528500,1.393528564453125,0.7318361401557922,-0.18482324481010437,-0.2552638053894043
1687502525872583200,1.403583251953125,0.9289098978042603,-0.5640571117401123,-0.2925480306148529
1687502525882637800,1.413637939453125,1.06419837474823,-0.972053050994873,-0.2179795652627945
1687502525892692500,1.4236923828125,1.0972214937210083,-1.1744531393051147,-0.07949529588222504
1687502525902747100,1.4337470703125,1.0088046789169312,-0.9976193904876709,0.07070687413215637
1687502525912801800,1.4438017578125,0.7893603444099426,-0.6482129096984863,0.20706062018871307
1687502525922856400,1.4538564453125,0.4857602119445801,-0.4277033507823944,0.3008038103580475
1687502525932911000,1.4639111328125,0.14487585425376892,-0.3009369671344757,0.35406699776649475
1687502525942965800,1.4739658203125,-0.1832253485918045,-0.1826927214860916,0.3647196292877197
1687502525953020400,1.4840205078125,-0.4239749312400818,0.01225053146481514,0.36258912086486816
1687502525963074800,1.49407470703125,-0.5571328997612,0.297741174697876,0.35939332842826843
1687502525973129500,1.50412939453125,-0.6093307733535767,0.5086634159088135,0.3700459599494934
1687502525983184100,1.51418408203125,-0.641288697719574,0.5885581374168396,0.38282912969589233
1687502525993238800,1.52423876953125,-0.6647245287895203,0.5853623747825623,0.3604585826396942
1687502526003293400,1.53429345703125,-0.6380929350852966,0.5203812718391418,0.2816290855407715
1687502526013348000,1.54434814453125,-0.5305013060569763,0.44048652052879333,0.17829850316047668
1687502526023402800,1.55440283203125,-0.35153698921203613,0.31798118352890015,0.08668582886457443
1687502526033457200,1.56445703125,-0.13315795361995697,0.11132004857063293,0.028096329420804977
1687502526043511800,1.57451171875,0.0894821435213089,-0.038882121443748474,0.049401599913835526
1687502526053566500,1.58456640625,0.2588590681552887,-0.07297056168317795,0.1591237634420395
1687502526063621000,1.59462109375,0.3344927728176117,-0.029294749721884727,0.3189133107662201
1687502526073675500,1.604675537109375,0.32810118794441223,0.033555805683135986,0.46698495745658875
1687502526083730200,1.614730224609375,0.26951169967651367,0.10705899447202682,0.5436839461326599
1687502526093784800,1.624784912109375,0.20985694229602814,0.2018674612045288,0.5436839461326599
1687502526103839200,1.634839111328125,0.16298533976078033,0.1784316599369049,0.4978775978088379
1687502526113894000,1.644893798828125,0.10439583659172058,0.08042740821838379,0.4446144104003906
1687502526123948500,1.654948486328125,-0.02024000883102417,0.08149266988039017,0.4691154658794403
1687502526134003200,1.665003173828125,-0.07882951200008392,0.2263685166835785,0.5436839461326599
1687502526144057600,1.6750576171875,-0.11078742146492004,0.3669833242893219,0.6928208470344543
1687502526154112300,1.6851123046875,-0.09267793595790863,0.4127896726131439,0.8238482475280762
1687502526164167000,1.6951669921875,-0.054328445345163345,0.4287686049938202,0.9271788597106934
1687502526174221300,1.70522119140625,-0.04048001766204834,0.37017911672592163,0.9793767333030701
1687502526184276000,1.71527587890625,-0.026631591841578484,0.26152223348617554,0.9719198942184448
1687502526194330600,1.72533056640625,0.02769685536623001,0.1315600574016571,0.9058735966682434
1687502526204385300,1.73538525390625,0.11504847556352615,-0.01970737800002098,0.7961513996124268
1687502526214439700,1.745439697265625,0.2215748429298401,-0.1038632020354271,0.6640587449073792
1687502526224494300,1.755494384765625,0.3291664719581604,-0.0985368862748146,0.5191828608512878
1687502526234549000,1.765549072265625,0.4037349224090576,-0.09108003973960876,0.3604585826396942
1687502526244603400,1.775603271484375,0.44954127073287964,-0.17097482085227966,0.163384810090065
1687502526254658000,1.785657958984375,0.46871599555015564,-0.29880645871162415,-0.06777740269899368
1687502526264712700,1.795712646484375,0.4559328258037567,-0.40639808773994446,-0.26272064447402954
1687502526274767400,1.805767333984375,0.42610546946525574,-0.4575307369232178,-0.36179015040397644
1687502526284821800,1.81582177734375,0.38775596022605896,-0.4575307369232178,-0.33835434913635254
1687502526294876400,1.82587646484375,0.3291664719581604,-0.4277033507823944,-0.21904483437538147
1687502526304931000,1.83593115234375,0.26631590723991394,-0.3680485785007477,-0.06777740269899368
1687502526314985700,1.84598583984375,0.21518325805664062,-0.30839383602142334,0.09201214462518692
1687502526325040000,1.8560400390625,0.17789903283119202,-0.28495803475379944,0.2667153775691986
1687502526335094800,1.8660947265625,0.15339796245098114,-0.3158506751060486,0.44781020283699036
1687502526345149400,1.8761494140625,0.1406148076057434,-0.38722333312034607,0.6033387184143066
1687502526355204000,1.8862041015625,0.13954953849315643,-0.4703139066696167,0.7077345252037048
1687502526365258800,1.8962587890625,0.15446323156356812,-0.5299686789512634,0.7716503739356995
1687502526375313400,1.9063134765625,0.19494324922561646,-0.5981455445289612,0.8355661630630493
1687502526385368000,1.9163681640625,0.26098960638046265,-0.7014760971069336,0.9399620294570923
1687502526395422700,1.926422607421875,0.34088435769081116,-0.8516782522201538,1.105077862739563
1687502526405477400,1.936477294921875,0.43462756276130676,-1.0114678144454956,1.3277180194854736
1687502526415532000,1.946531982421875,0.519848644733429,-1.0657962560653687,1.553553819656372
1687502526425586400,1.95658642578125,0.4793686270713806,-0.8889625072479248,1.7090823650360107
1687502526435641000,1.96664111328125,0.2215748429298401,-0.34035173058509827,1.53650963306427
1687502526445695700,1.97669580078125,-0.3813643753528595,0.8165245652198792,0.7130608558654785
1687502526455750400,1.98675048828125,-1.4253227710723877,2.149169445037842,-0.7452850937843323
1687502526465805000,1.99680517578125,-2.5289359092712402,2.772348642349243,-3.4776864051818848
1687502526475859700,2.006859619140625,-2.9507803916931152,2.9630308151245117,-8.46418571472168
1687502526485914400,2.016914306640625,-2.812295913696289,3.5553174018859863,-15.582277297973633
1687502526495969000,2.026968994140625,-2.5268054008483887,3.8269596099853516,-21.734174728393555
1687502526506023700,2.037023681640625,-1.771533489227295,2.1789968013763428,-25.67991065979004
1687502526516078300,2.047078369140625,0.309991717338562,-1.6740617752075195,-27.142518997192383
1687502526526133000,2.057133056640625,3.547327995300293,-3.9409427642822266,-19.709108352661133
1687502526536187600,2.067187744140625,5.202747821807861,-10.24730396270752,-4.568516254425049
1687502526546242000,2.077241943359375,3.984086036682129,-11.819632530212402,7.761910438537598
1687502526556296700,2.087296630859375,-0.5241097211837769,-7.738607883453369,11.366762161254883
1687502526566351400,2.097351318359375,-5.480781555175781,-2.1992368698120117,10.507094383239746
1687502526576406000,2.107406005859375,-7.551653861999512,3.2357382774353027,9.724125862121582
1687502526586460700,2.117460693359375,-7.397190570831299,5.669865608215332,9.798694610595703
1687502526596515300,2.127515380859375,-5.995303630828857,5.36200475692749,9.78165054321289
1687502526606570000,2.137570068359375,-4.104460716247559,3.404049873352051,9.14355754852295
1687502526616624600,2.147624755859375,-2.420279026031494,1.2554131746292114,7.783215522766113
1687502526626679300,2.15767919921875,-1.0492846965789795,-0.01651158556342125,5.756019115447998
1687502526636734000,2.16773388671875,-0.08096003532409668,-0.42557281255722046,3.6340136528015137
1687502526646788600,2.17778857421875,0.3962780833244324,-0.31691592931747437,2.0435750484466553
1687502526656843300,2.18784326171875,0.6103960871696472,0.11558110266923904,1.0187915563583374
1687502526666897700,2.197897705078125,0.732901394367218,0.343547523021698,0.4360923171043396
1687502526676952300,2.207952392578125,0.8106656074523926,0.1592569202184677,0.11438268423080444
1687502526687007000,2.218007080078125,0.8958867192268372,-0.11877689510583878,-0.0624510794878006
1687502526697061600,2.2280615234375,1.0130656957626343,-0.3488738536834717,-0.11571425944566727
1687502526707116300,2.2381162109375,1.1536805629730225,-0.4575307369232178,-0.04221107065677643
1687502526717171000,2.2481708984375,1.290034294128418,-0.35952648520469666,0.12183953076601028
1687502526727225600,2.2582255859375,1.381646990776062,-0.1933453530073166,0.33063119649887085
1687502526737280300,2.2682802734375,1.3677985668182373,-0.16245271265506744,0.47550705075263977
1687502526747335000,2.2783349609375,1.2165310382843018,-0.211454838514328,0.4925512671470642
1687502526757389600,2.2883896484375,0.9598025679588318,-0.30732855200767517,0.3796333372592926
1687502526767444200,2.2984443359375,0.6434192657470703,-0.37337490916252136,0.2059953510761261
1687502526777499000,2.308498779296875,0.3057306706905365,-0.32224225997924805,0.0600542388856411
1687502526787553500,2.318553466796875,-0.06711161136627197,-0.08149266988039017,0.0366184376180172
1687502526797608000,2.32860791015625,-0.42930126190185547,0.22743378579616547,0.16551533341407776
1687502526807662600,2.33866259765625,-0.708400309085846,0.3478085696697235,0.3412838280200958
1687502526817717200,2.34871728515625,-0.8948214650154114,0.3307643532752991,0.4691154658794403
1687502526827772000,2.35877197265625,-0.9693899154663086,0.33715593814849854,0.5149217844009399
1687502526837826600,2.36882666015625,-0.9480846524238586,0.43409493565559387,0.5063996911048889
1687502526847881200,2.378881103515625,-0.8713856339454651,0.5608612895011902,0.48189863562583923
1687502526857936000,2.388935791015625,-0.7733814120292664,0.6418213248252869,0.45313653349876404
1687502526867990500,2.398990478515625,-0.6348971128463745,0.6024065613746643,0.39561229944229126
1687502526878045200,2.409045166015625,-0.433562308549881,0.41172438859939575,0.3135869801044464
1687502526888099800,2.419099853515625,-0.21944430470466614,0.1507348120212555,0.26032379269599915
1687502526898154500,2.429154541015625,-0.026631591841578484,0.0005326318205334246,0.2709764242172241
1687502526908209200,2.439209228515625,0.11824426054954529,0.02396843209862709,0.3242396116256714
1687502526918263600,2.449263671875,0.22370536625385284,0.10173267871141434,0.3466101586818695
1687502526928318200,2.459318115234375,0.2950780391693115,0.054861076176166534,0.2816290855407715
1687502526938372900,2.469372802734375,0.3387538492679596,-0.03675159439444542,0.17403744161128998
1687502526948427500,2.479427490234375,0.38456016778945923,-0.07616634666919708,0.12290479242801666
1687502526958482200,2.489482177734375,0.3813643753528595,-0.0708400309085846,0.16125428676605225
1687502526968536800,2.499536865234375,0.3440801501274109,-0.04101264849305153,0.24647536873817444
1687502526978591500,2.509591552734375,0.30786117911338806,-0.04101264849305153,0.32530489563941956
1687502526988646100,2.519646240234375,0.2727074921131134,-0.1038632020354271,0.38176384568214417
1687502526998700800,2.52970068359375,0.22690115869045258,-0.19228008389472961,0.4691154658794403
1687502527008755500,2.53975537109375,0.16085481643676758,-0.2402169555425644,0.6257092356681824
1687502527018810000,2.54981005859375,0.08522108942270279,-0.1699095517396927,0.8227829933166504
1687502527028864800,2.55986474609375,0.010652636177837849,-0.09214530140161514,0.9761809706687927
1687502527038919400,2.56991943359375,-0.05326318368315697,-0.015446322970092297,1.020922064781189
1687502527048973800,2.579973876953125,-0.09480846673250198,0.04420844092965126,0.9484841227531433
1687502527059028500,2.590028564453125,-0.11930952966213226,0.08788424730300903,0.7929556369781494
1687502527069083100,2.600083251953125,-0.12570111453533173,0.09640636295080185,0.6097303032875061
1687502527079137800,2.6101376953125,-0.12037479132413864,0.09001477807760239,0.4307659864425659
1687502527089192400,2.6201923828125,-0.11398320645093918,0.12303794920444489,0.27417221665382385
1687502527099247000,2.6302470703125,-0.10652636736631393,0.15712638199329376,0.16658060252666473
1687502527109301800,2.6403017578125,-0.10972215235233307,0.1358211189508438,0.12929637730121613
1687502527119356400,2.6503564453125,-0.11398320645093918,0.11132004857063293,0.1356879621744156
1687502527129411000,2.6604111328125,-0.09161267429590225,0.10705899447202682,0.14740586280822754
1687502527139465700,2.6704658203125,-0.04474107176065445,0.08255793154239655,0.1495363861322403
1687502527149520400,2.680520263671875,0.005326318088918924,0.04846949502825737,0.13355742394924164
1687502527159575000,2.690574951171875,0.04367581009864807,0.017576850950717926,0.11225215345621109
1687502527169629400,2.70062939453125,0.06285055726766586,0.004793686326593161,0.12929637730121613
1687502527179684000,2.71068408203125,0.07137266546487808,-0.009054740890860558,0.2102564126253128
1687502527189738800,2.72073876953125,0.06072002649307251,-0.01970737800002098,0.3327617347240448
1687502527199793400,2.73079345703125,0.0330231711268425,-0.04846949502825737,0.45313653349876404
1687502527209848000,2.74084814453125,-0.005326318088918924,-0.08788424730300903,0.5330312848091125
1687502527219902700,2.75090283203125,-0.025566328316926956,-0.1038632020354271,0.5671197175979614
1687502527229957400,2.760957275390625,-0.030892645940184593,-0.0708400309085846,0.5639239549636841
1687502527240012000,2.771011962890625,-0.023435799404978752,-0.042077913880348206,0.5426186919212341
1687502527250066700,2.781066650390625,-0.012783164158463478,-0.00798947736620903,0.5010733604431152
1687502527260121300,2.791121337890625,-0.0074568456038832664,0.018642114475369453,0.43928807973861694
1687502527270176000,2.801176025390625,-0.011717899702489376,0.038882121443748474,0.37856805324554443
1687502527280230700,2.811230712890625,-0.025566328316926956,0.06018739566206932,0.3370227813720703
1687502527290285300,2.821285400390625,-0.0330231711268425,0.07723161578178406,0.32956594228744507
1687502527300339700,2.831339599609375,-0.022370535880327225,0.07190529257059097,0.3338269889354706
1687502527310394400,2.841394287109375,-0.0074568456038832664,0.04953476041555405,0.3135869801044464
1687502527320449000,2.851448974609375,0.008522109128534794,0.021837905049324036,0.2624543309211731
1687502527330503700,2.861503662109375,0.0330231711268425,-0.006924213841557503,0.21132168173789978
1687502527340558300,2.871558349609375,0.058589499443769455,-0.034621067345142365,0.1772332340478897
1687502527350613000,2.881613037109375,0.06498108059167862,-0.07403582334518433,0.18149429559707642
1687502527360667600,2.891667724609375,0.06924213469028473,-0.14434322714805603,0.22730062901973724
1687502527370722300,2.901722412109375,0.08735162019729614,-0.21571588516235352,0.30293434858322144
1687502527380777000,2.91177685546875,0.11504847556352615,-0.2860232889652252,0.3945470154285431
1687502527390831600,2.92183154296875,0.1459411233663559,-0.3755054473876953,0.49894285202026367
1687502527400886300,2.93188623046875,0.1928127259016037,-0.4617917835712433,0.6044039726257324
1687502527410941000,2.94194091796875,0.24394537508487701,-0.5608612895011902,0.7056040167808533
1687502527420995300,2.951995361328125,0.3249054253101349,-0.6940192580223083,0.819587230682373
1687502527431050000,2.962050048828125,0.4751075804233551,-0.8729835748672485,1.0060083866119385
1687502527441104600,2.972104736328125,0.6625939607620239,-0.9326383471488953,1.3053474426269531
1687502527451159300,2.9821591796875,0.687095046043396,-0.8037413954734802,1.6760591268539429
1687502527461214000,2.9922138671875,0.22690115869045258,-0.8665919899940491,1.9647456407546997
1687502527471268600,3.0022685546875,-0.8096003532409668,-0.6599308252334595,1.2680631875991821
1687502527481323300,3.0123232421875,-1.989912509918213,0.17523586750030518,-2.311222553253174
1687502527491377700,3.022377685546875,-3.1521151065826416,2.71802020072937,-9.084168434143066
1687502527501432300,3.032432373046875,-4.09913444519043,3.1228203773498535,-17.730913162231445
1687502527511487000,3.042487060546875,-4.512456893920898,3.6991279125213623,-24.30252456665039
1687502527521541600,3.052541748046875,-4.084220886230469,2.655169725418091,-27.977684020996094
1687502527531596000,3.062595947265625,-1.1590068340301514,-0.8037413954734802,-28.640277862548828
1687502527541650700,3.072650634765625,4.649875640869141,-6.885331630706787,-19.90831184387207
1687502527551705300,3.082705322265625,7.310904502868652,-15.657777786254883,-3.144258737564087
1687502527561760000,3.092760009765625,5.417931079864502,-15.088927268981934,8.989093780517578
1687502527571814400,3.102814453125,-0.3611243665218353,-7.031272888183594,11.010964393615723
1687502527581869000,3.112869140625,-6.4118218421936035,0.8836361765861511,9.350218772888184
1687502527591923700,3.122923828125,-8.527435302734375,6.1247334480285645,8.899611473083496
1687502527601978000,3.13297802734375,-7.596395015716553,7.057904243469238,9.753952980041504
1687502527612032800,3.14303271484375,-5.094090938568115,5.237368583679199,10.304695129394531
1687502527622087400,3.15308740234375,-2.147571563720703,2.902310848236084,9.676189422607422
1687502527632142000,3.16314208984375,0.10120004415512085,0.820785641670227,8.157123565673828
1687502527642196500,3.173196533203125,1.2623374462127686,-0.3861580789089203,6.0265960693359375
1687502527652251100,3.183251220703125,1.5350449085235596,-0.4937497079372406,3.3517189025878906
1687502527662305800,3.193305908203125,1.198421597480774,-0.154995858669281,1.0411620140075684
1687502527672360200,3.203360107421875,0.6253097653388977,0.2721748650074005,-0.29041749238967896
1687502527682414800,3.213414794921875,0.11078742146492004,0.6886929273605347,-0.6781734824180603
1687502527692469500,3.223469482421875,-0.13954953849315643,0.8857667446136475,-0.4565986394882202
1687502527702524200,3.233524169921875,-0.11398320645093918,0.6418213248252869,-0.012383690103888512
1687502527712578600,3.24357861328125,0.07882951200008392,0.26045694947242737,0.39135122299194336
1687502527722633200,3.25363330078125,0.43036651611328125,-0.004793686326593161,0.6651239991188049
1687502527732688000,3.26368798828125,0.8266445994377136,-0.09108003973960876,0.7844334840774536
1687502527742742300,3.2737421875,1.125983715057373,-0.01651158556342125,0.8004124760627747
1687502527752797000,3.283796875,1.2197269201278687,-0.07723161578178406,0.773780882358551
1687502527762851600,3.2938515625,1.0833730697631836,-0.343547523021698,0.7428882122039795
1687502527772906200,3.30390625,0.7712509036064148,-0.5534044504165649,0.7386271953582764
1687502527782960600,3.313960693359375,0.3611243665218353,-0.46818336844444275,0.7961513996124268
1687502527793015300,3.324015380859375,-0.06285055726766586,-0.14966954290866852,0.9293093681335449
1687502527803070000,3.334070068359375,-0.42077913880348206,0.16245271265506744,1.110404133796692
1687502527813124600,3.34412451171875,-0.6647245287895203,0.4138549268245697,1.269128441810608
1687502527823179300,3.35417919921875,-0.8096003532409668,0.5960150361061096,1.3266527652740479
1687502527833233700,3.364233642578125,-0.8735162019729614,0.6194508075714111,1.2382358312606812
1687502527843288300,3.374288330078125,-0.8596677780151367,0.5246423482894897,1.0028125047683716
1687502527853343000,3.384343017578125,-0.7744466662406921,0.45433494448661804,0.7301050424575806
1687502527863397600,3.394397705078125,-0.6583329439163208,0.3797664940357208,0.5340965390205383
1687502527873452300,3.404452392578125,-0.52837073802948,0.27537065744400024,0.4552670419216156
1687502527883507000,3.4145068359375,-0.3994738757610321,0.17630113661289215,0.4542017877101898
1687502527893561600,3.4245615234375,-0.28442537784576416,0.15606112778186798,0.48509442806243896
1687502527903616300,3.4346162109375,-0.19174745678901672,0.20080219209194183,0.5202481150627136
1687502527913671000,3.4446708984375,-0.09587372839450836,0.25619590282440186,0.5436839461326599
1687502527923725600,3.4547255859375,0.0010652636410668492,0.27004432678222656,0.5383576154708862
1687502527933780200,3.4647802734375,0.10439583659172058,0.22743378579616547,0.48189863562583923
1687502527943835000,3.4748349609375,0.21731378138065338,0.1464737504720688,0.39241650700569153
1687502527953889300,3.48488916015625,0.31744855642318726,0.03994738683104515,0.32956594228744507
1687502527963944000,3.49494384765625,0.3707117438316345,-0.08255793154239655,0.2997385561466217
1687502527973998600,3.50499853515625,0.3909517526626587,-0.1177116334438324,0.275237500667572
1687502527984053200,3.51505322265625,0.38349491357803345,-0.10066741704940796,0.24967116117477417
1687502527994108000,3.52510791015625,0.3653854429721832,-0.11558110266923904,0.22836589813232422
1687502528004162600,3.53516259765625,0.3387538492679596,-0.12942953407764435,0.2251701056957245
1687502528014217200,3.54521728515625,0.30253487825393677,-0.12090742588043213,0.2571280002593994
1687502528024272000,3.55527197265625,0.24181485176086426,-0.07829687744379044,0.3242396116256714
1687502528034326500,3.565326416015625,0.16724638640880585,-0.01438105944544077,0.4041343927383423
1687502528044381200,3.575381103515625,0.10865689069032669,0.06444845348596573,0.4595280885696411
1687502528054435800,3.585435791015625,0.06498108059167862,0.06764423847198486,0.4840291738510132
1687502528064490500,3.595490478515625,0.023435799404978752,-0.0037284228019416332,0.49468180537223816
1687502528074545200,3.605545166015625,-0.009587372653186321,-0.033555805683135986,0.5053344368934631
1687502528084599600,3.615599609375,-0.03515370190143585,-0.04101264849305153,0.5255744457244873
1687502528094654200,3.625654296875,-0.054328445345163345,0.0015978955198079348,0.530900776386261
1687502528104708900,3.635708984375,-0.06072002649307251,0.037816859781742096,0.49894285202026367
1687502528114763500,3.645763427734375,-0.058589499443769455,0.03994738683104515,0.4403533637523651
1687502528124818200,3.655818115234375,-0.05326318368315697,0.030360013246536255,0.3668501675128937
1687502528134872800,3.665872802734375,-0.045806337147951126,0.04314317926764488,0.2635195851325989
1687502528144927500,3.675927490234375,-0.04793686419725418,0.08362319320440292,0.15805849432945251
1687502528154982100,3.685982177734375,-0.06924213469028473,0.11877689510583878,0.10905636847019196
1687502528165036800,3.696036865234375,-0.1033305749297142,0.11132004857063293,0.13249216973781586
1687502528175091500,3.706091552734375,-0.12037479132413864,0.11877689510583878,0.1964079886674881
1687502528185146000,3.71614599609375,-0.10652636736631393,0.11132004857063293,0.2667153775691986
1687502528195200800,3.72620068359375,-0.061785291880369186,0.05699160322546959,0.3274354040622711
1687502528205255200,3.736255126953125,0.008522109128534794,-0.03249054029583931,0.37750279903411865
1687502528215309800,3.746309814453125,0.08415582776069641,-0.11345057934522629,0.42437440156936646
1687502528225364500,3.756364501953125,0.1502021700143814,-0.16564849019050598,0.4552670419216156
1687502528235419100,3.766419189453125,0.188551664352417,-0.22423799335956573,0.47124600410461426
1687502528245473800,3.776473876953125,0.18642114102840424,-0.29028433561325073,0.509595513343811
1687502528255528400,3.786528564453125,0.15339796245098114,-0.31372013688087463,0.5873597264289856
1687502528265583000,3.7965830078125,0.11824426054954529,-0.34567806124687195,0.6938861012458801
1687502528275637800,3.8066376953125,0.10759162902832031,-0.41705071926116943,0.8238482475280762
1687502528285692400,3.8166923828125,0.11824426054954529,-0.4799012839794159,0.9889641404151917
1687502528295747000,3.8267470703125,0.1267663687467575,-0.5075981020927429,1.1934947967529297
1687502528305801700,3.8368017578125,0.11930952966213226,-0.5214465260505676,1.4086780548095703
1687502528315856400,3.8468564453125,0.09800425171852112,-0.4948149621486664,1.569532871246338
1687502528325911000,3.8569111328125,0.06072002649307251,-0.4372907280921936,1.6483622789382935
1687502528335965400,3.86696533203125,0.010652636177837849,-0.35526543855667114,1.6920381784439087
1687502528346020000,3.87702001953125,-0.034088436514139175,-0.28389275074005127,1.7335834503173828
1687502528356074800,3.88707470703125,-0.06072002649307251,-0.24660852551460266,1.775128722190857
1687502528366129400,3.89712939453125,-0.06391581892967224,-0.2253032624721527,1.8028255701065063
1687502528376184000,3.90718408203125,-0.034088436514139175,-0.2263685166835785,1.8028255701065063
1687502528386238700,3.91723876953125,0.04474107176065445,-0.20932430028915405,1.7772592306137085
1687502528396293400,3.92729345703125,0.16298533976078033,-0.20932430028915405,1.7538233995437622
1687502528406348000,3.93734814453125,0.32170963287353516,-0.1880190372467041,1.7335834503173828
1687502528416402700,3.947402587890625,0.5102612972259521,-0.10279794037342072,1.6973644495010376
1687502528426457300,3.957457275390625,0.6721813678741455,0.04101264849305153,1.6174696683883667
1687502528436512000,3.967511962890625,0.7307708859443665,0.0751010850071907,1.4598106145858765
1687502528446566700,3.977566650390625,0.6103960871696472,-0.11025478690862656,0.9612672924995422
1687502528456621000,3.98762109375,0.2673811614513397,-0.5352949500083923,-0.42251017689704895
1687502528466675700,3.99767578125,-0.31744855642318726,-0.24234747886657715,-3.511774778366089
1687502528476730400,4.00773046875,-1.0823078155517578,0.7376950979232788,-9.287633895874023
1687502528486785000,4.017784912109375,-2.123070478439331,1.793371319770813,-16.577232360839844
1687502528496839700,4.027839599609375,-3.2969908714294434,3.3326773643493652,-22.70676040649414
1687502528506894300,4.037894287109375,-4.432561874389648,5.462139129638672,-26.93585777282715
1687502528516949000,4.047948974609375,-5.088764190673828,5.987314224243164,-29.235761642456055
1687502528527003600,4.058003662109375,-3.3151004314422607,3.0226855278015137,-28.700998306274414
1687502528537058300,4.068058349609375,1.6532891988754272,-3.80991530418396,-19.55784034729004
1687502528547113000,4.078113037109375,4.781968593597412,-13.453746795654297,-3.8121790885925293
1687502528557167600,4.088167724609375,4.424039840698242,-15.219954490661621,7.458310127258301
1687502528567222300,4.09822216796875,0.5997434258460999,-8.401201248168945,9.972332000732422
1687502528577277000,4.10827685546875,-3.9649112224578857,0.10279794037342072,8.520378112792969
1687502528587331300,4.118331298828125,-5.953758716583252,6.713824272155762,7.194124698638916
1687502528597386000,4.128385986328125,-5.577720642089844,8.796414375305176,7.020486831665039
1687502528607440600,4.138440673828125,-3.974498748779297,6.93220329284668,7.2559099197387695
1687502528617495300,4.148495361328125,-2.029327154159546,3.383810043334961,7.233539581298828
1687502528627550000,4.158550048828125,-0.37923386693000793,0.6194508075714111,6.883068084716797
1687502528637604600,4.1686044921875,0.7147918939590454,-0.34141698479652405,6.40156888961792
1687502528647659300,4.1786591796875,1.0993521213531494,-0.15712638199329376,6.132057189941406
1687502528657713700,4.188713623046875,0.9725856781005859,0.31265488266944885,6.17147159576416
1687502528667768300,4.198768310546875,0.7478150725364685,0.5629918575286865,6.252431869506836
1687502528677823000,4.208822998046875,0.5315665602684021,0.5214465260505676,6.078794002532959
1687502528687877600,4.218877685546875,0.38242965936660767,0.21891167759895325,5.546162128448486
1687502528697932000,4.22893212890625,0.3909517526626587,0.13475584983825684,4.816456317901611
1687502528707986700,4.238986572265625,0.5390233993530273,0.28389275074005127,4.18582010269165
1687502528718041300,4.249041259765625,0.7563371658325195,0.44474756717681885,3.820434808731079
1687502528728095700,4.259095703125,0.9874994158744812,0.3627222776412964,3.6361443996429443
1687502528738150400,4.269150390625,1.1547458171844482,0.08149266988039017,3.449723243713379
1687502528748205000,4.279205078125,1.2463585138320923,-0.27110961079597473,3.1887335777282715
1687502528758259700,4.289259765625,1.2761858701705933,-0.4745749533176422,2.8553061485290527
1687502528768314000,4.299314208984375,1.2463585138320923,-0.4852275848388672,2.512291193008423
1687502528778368800,4.30936865234375,1.148354172706604,-0.40639808773994446,2.203364610671997
1687502528788425200,4.31942529296875,0.9789772629737854,-0.287088543176651,1.938114047050476
1687502528798478600,4.329478515625,0.7946866750717163,-0.16245271265506744,1.7218655347824097
1687502528808531700,4.33953173828125,0.6210486888885498,-0.1358211189508438,1.53650963306427
1687502528818585000,4.349585205078125,0.4474107325077057,-0.221042200922966,1.3745895624160767
1687502528828638700,4.359638671875,0.2716422379016876,-0.3296990990638733,1.221191644668579
1687502528838692400,4.3696923828125,0.11398320645093918,-0.3755054473876953,1.0763157606124878
1687502528848746200,4.379746337890625,-0.02450106292963028,-0.3062632977962494,0.9293093681335449
1687502528858800000,4.389800048828125,-0.15872427821159363,-0.12303794920444489,0.7908250689506531
1687502528868854500,4.3998544921875,-0.3067959249019623,0.09747162461280823,0.6725808382034302
1687502528878909200,4.4099091796875,-0.45912861824035645,0.2551306486129761,0.5564671158790588
1687502528888963800,4.4199638671875,-0.5560676455497742,0.32650330662727356,0.4233091473579407
1687502528899019000,4.43001904296875,-0.5699160695075989,0.35952648520469666,0.27843329310417175
1687502528909074200,4.44007421875,-0.5209138989448547,0.343547523021698,0.13142690062522888
1687502528919129600,4.450129638671875,-0.4090612530708313,0.2306295782327652,0.0153131652623415
1687502528929185000,4.46018505859375,-0.25672852993011475,0.08149266988039017,-0.03368896245956421
1687502528939240400,4.470240478515625,-0.11717899888753891,0.030360013246536255,-0.02090579830110073
1687502528949296000,4.480296142578125,-0.010652636177837849,0.053795814514160156,0.03981423005461693
1687502528959351800,4.490351806640625,0.09054741263389587,0.06338318437337875,0.11757847666740417
1687502528969407000,4.500406982421875,0.19174745678901672,0.03568633273243904,0.16231954097747803
1687502528979461600,4.510461669921875,0.2737727463245392,-0.03568633273243904,0.1356879621744156
1687502528989516000,4.52051611328125,0.32810118794441223,-0.09747162461280823,0.04727107286453247
1687502528999570700,4.53057080078125,0.3440801501274109,-0.16138744354248047,-0.056059498339891434
1687502529009625300,4.540625244140625,0.3163833022117615,-0.20506325364112854,-0.14021532237529755
1687502529019680000,4.550679931640625,0.2577938139438629,-0.18482324481010437,-0.19667430222034454
1687502529029734400,4.560734375,0.19494324922561646,-0.07190529257059097,-0.21478378772735596
1687502529039789000,4.5707890625,0.13422322273254395,0.06977476924657822,-0.17643429338932037
1687502529049843700,4.58084375,0.10439583659172058,0.11664637178182602,-0.0997353047132492
1687502529059898000,4.590898193359375,0.10759162902832031,0.06444845348596573,-0.023036325350403786
1687502529069952800,4.600952880859375,0.13741901516914368,0.005858949851244688,0.029161592945456505
1687502529080007400,4.61100732421875,0.17257271707057953,-0.04953476041555405,0.04620581120252609
1687502529090062000,4.62106201171875,0.19600850343704224,-0.10705899447202682,0.05259739235043526
1687502529100116500,4.631116455078125,0.19920429587364197,-0.14008216559886932,0.08775109052658081
1687502529110171100,4.641171142578125,0.17683376371860504,-0.14008216559886932,0.15486270189285278
1687502529120225800,4.651225830078125,0.13848426938056946,-0.10066741704940796,0.22836589813232422
1687502529130280200,4.6612802734375,0.09161267429590225,-0.033555805683135986,0.2901511788368225
1687502529140334800,4.6713349609375,0.0564589723944664,0.029294749721884727,0.3146522343158722
1687502529150389500,4.681389404296875,0.046871598809957504,0.04527370631694794,0.29334697127342224
1687502529160444200,4.691444091796875,0.05113265663385391,0.06338318437337875,0.20812588930130005
1687502529170498600,4.70149853515625,0.07776424288749695,0.08149266988039017,0.08775109052658081
1687502529180553200,4.71155322265625,0.11611373722553253,0.005858949851244688,-0.02090579830110073
1687502529190608000,4.72160791015625,0.12570111453533173,-0.0846884623169899,-0.08695214241743088
1687502529200662300,4.731662353515625,0.10546109825372696,-0.10918952524662018,-0.08482161909341812
1687502529210717000,4.741717041015625,0.07669898122549057,-0.09747162461280823,-0.01664474420249462
1687502529220771600,4.751771484375,0.04900212585926056,-0.09321057051420212,0.09414267539978027
1687502529230826200,4.761826171875,0.026631591841578484,-0.11025478690862656,0.20279955863952637
1687502529240880600,4.771880615234375,0.009587372653186321,-0.15393058955669403,0.24967116117477417
1687502529250935300,4.781935302734375,0.0074568456038832664,-0.18908429145812988,0.2390185296535492
1687502529260990000,4.791989990234375,0.02876211889088154,-0.19973693788051605,0.2102564126253128
1687502529271044400,4.80204443359375,0.045806337147951126,-0.18588849902153015,0.22303956747055054
1687502529281099000,4.81209912109375,0.04793686419725418,-0.18695376813411713,0.2912164330482483
1687502529291153700,4.822153564453125,0.05219791829586029,-0.19867166876792908,0.40519964694976807
1687502529301208300,4.832208251953125,0.07243792712688446,-0.21571588516235352,0.5340965390205383
1687502529311262700,4.8422626953125,0.11185268312692642,-0.2689790725708008,0.6768419146537781
1687502529321317400,4.8523173828125,0.18109482526779175,-0.4191812574863434,0.840892493724823
1687502529331372000,4.8623720703125,0.2737727463245392,-0.6183855533599854,1.055010437965393
1687502529341426400,4.872426513671875,0.36964648962020874,-0.8239814043045044,1.3373053073883057
1687502529351481000,4.882481201171875,0.43143177032470703,-0.9954888820648193,1.6771245002746582
1687502529361535700,4.89253564453125,0.4740423262119293,-1.0945583581924438,2.040379285812378
1687502529371590400,4.90259033203125,0.5475454926490784,-1.0743184089660645,2.4057648181915283
1687502529381644800,4.912644775390625,0.5273054838180542,-0.8910930156707764,2.699777603149414
1687502529391699500,4.922699462890625,0.28442537784576416,-0.5161202549934387,2.8212175369262695
1687502529401754000,4.932754150390625,-0.1597895473241806,-0.034621067345142365,2.5825984477996826
1687502529411808800,4.942808837890625,-0.7265098094940186,0.37017911672592163,1.420395851135254
1687502529421863400,4.952863525390625,-1.05674147605896,0.7046719193458557,-1.2076095342636108
1687502529431918000,4.96291796875,-1.2548805475234985,0.6130592226982117,-6.27080774307251
1687502529441972700,4.97297265625,-1.4594111442565918,0.30413275957107544,-13.393159866333008
1687502529452027400,4.98302734375,-1.6266576051712036,0.6258423924446106,-20.154388427734375
1687502529462082000,4.99308203125,-1.9409103393554688,2.058621883392334,-24.550731658935547
1687502529472136700,5.00313671875,-2.5576980113983154,3.8823533058166504,-26.68338966369629
1687502529482191400,5.01319140625,-2.981673002243042,4.74628210067749,-27.46103286743164
1687502529492246000,5.02324609375,-1.8684724569320679,4.2189764976501465,-24.87457275390625
1687502529502300700,5.03330078125,0.25246748328208923,-0.32756856083869934,-14.660823822021484
1687502529512355000,5.04335498046875,1.2964258193969727,-7.238998889923096,-1.3024179935455322
1687502529522409700,5.05340966796875,1.788577675819397,-9.257673263549805,7.488137722015381
1687502529532464400,5.06346435546875,0.8426235318183899,-6.686127185821533,10.502833366394043
1687502529542519000,5.07351904296875,-0.6519413590431213,-2.133190393447876,10.563553810119629
1687502529552573700,5.08357373046875,-1.7832512855529785,2.1608872413635254,9.342761993408203
1687502529562628400,5.09362841796875,-2.4522368907928467,4.400071620941162,7.964310646057129
1687502529572683000,5.10368310546875,-2.486325263977051,4.701540946960449,6.974680423736572
1687502529582737700,5.113737548828125,-1.8833861351013184,3.873831272125244,6.5080952644348145
1687502529592792300,5.123792236328125,-0.9960215091705322,2.2205419540405273,6.423939228057861
1687502529602847000,5.133846923828125,-0.2396843135356903,0.23915168642997742,6.395176887512207
1687502529612901600,5.143901611328125,0.3376885652542114,-1.1392995119094849,6.364284515380859
1687502529622956300,5.153956298828125,0.7574024200439453,-1.373657464981079,6.450570583343506
1687502529633010700,5.1640107421875,1.0716552734375,-0.6865624189376831,6.662558078765869
1687502529643065300,5.1740654296875,1.3219921588897705,0.3382211923599243,6.8596320152282715
1687502529653120000,5.1841201171875,1.4626070261001587,0.9209204316139221,6.961897373199463
1687502529663174700,5.194174560546875,1.5275880098342896,0.774979293346405,6.918221473693848
1687502529673229300,5.204229248046875,1.4924343824386597,0.1933453530073166,6.644448757171631
1687502529683284000,5.214283935546875,1.3379710912704468,-0.3478085696697235,6.116077899932861
1687502529693338600,5.224338623046875,1.1004173755645752,-0.6524739861488342,5.35761022567749
1687502529703393300,5.234393310546875,0.8372972011566162,-0.5725792050361633,4.481963634490967
1687502529713448000,5.244447998046875,0.6008086800575256,-0.1038632020354271,3.5743589401245117
1687502529723505200,5.254505126953125,0.3717769980430603,0.4138549268245697,2.7072343826293945
1687502529733557500,5.2645576171875,0.17044217884540558,0.7334340214729309,1.938114047050476
1687502529743610000,5.274610107421875,0.03941475600004196,0.8271772265434265,1.29362952709198
1687502529753662700,5.284662841796875,-0.02876211889088154,0.6439518928527832,0.7695198059082031
1687502529763715600,5.294715576171875,-0.03621896356344223,0.21891167759895325,0.3199785649776459
1687502529773768700,5.304768798828125,-0.013848427683115005,-0.21038956940174103,-0.047537390142679214
1687502529783822000,5.314822021484375,0.02450106292963028,-0.3989412188529968,-0.3074617087841034
1687502529793876000,5.3248759765625,0.04367581009864807,-0.37017911672592163,-0.45446810126304626
1687502529803930000,5.33493017578125,0.004261054564267397,-0.26152223348617554,-0.5045354962348938
1687502529813984500,5.344984619140625,-0.07243792712688446,-0.15286533534526825,-0.5013396739959717
1687502529824039400,5.355039306640625,-0.15872427821159363,-0.06870950758457184,-0.48323023319244385
1687502529834094800,5.3650947265625,-0.2354232668876648,0.03994738683104515,-0.45979443192481995
1687502529844150300,5.375150390625,-0.2865559160709381,0.1272990107536316,-0.4491417706012726
1687502529854206200,5.385206298828125,-0.2737727463245392,0.09960214793682098,-0.45127230882644653
1687502529864262100,5.39526220703125,-0.20985694229602814,0.006924213841557503,-0.4480765163898468
1687502529874318300,5.405318359375,-0.13848426938056946,-0.05699160322546959,-0.40759649872779846
1687502529884374500,5.41537451171875,-0.08202529698610306,-0.017576850950717926,-0.334093302488327
1687502529894430700,5.4254306640625,-0.04793686419725418,0.06444845348596573,-0.2552638053894043
1687502529904486000,5.43548583984375,0.021305272355675697,0.06338318437337875,-0.20519641041755676
1687502529914540500,5.44554052734375,0.16085481643676758,0.005858949851244688,-0.1988048255443573
1687502529924595200,5.45559521484375,0.3110569715499878,-0.02396843209862709,-0.24354590475559235
1687502529934649600,5.465649658203125,0.41651809215545654,-0.0516652874648571,-0.3394196331501007
1687502529944704300,5.475704345703125,0.46871599555015564,-0.06764423847198486,-0.45553335547447205
1687502529954759000,5.485759033203125,0.4665854871273041,-0.10599373281002045,-0.5141228437423706
1687502529964813600,5.4958134765625,0.4516717791557312,-0.1645832359790802,-0.4906870722770691
1687502529974868000,5.505867919921875,0.4410191476345062,-0.21784640848636627,-0.39800912141799927
1687502529984922600,5.515922607421875,0.43995389342308044,-0.2785664498806,-0.2595248520374298
1687502529994977300,5.525977294921875,0.43569281697273254,-0.34567806124687195,-0.10506162792444229
1687502530005034200,5.5360341796875,0.4101265072822571,-0.37444016337394714,0.040879491716623306
1687502530015086600,5.546086669921875,0.3440801501274109,-0.3062632977962494,0.15060164034366608
1687502530025139200,5.55613916015625,0.2492716908454895,-0.15819165110588074,0.2241048365831375
1687502530035191800,5.56619189453125,0.14487585425376892,-0.015446322970092297,0.25606274604797363
1687502530045245000,5.576244873046875,0.05965476483106613,0.053795814514160156,0.2518016993999481
1687502530055298000,5.586298095703125,0,0.046338967978954315,0.24967116117477417
1687502530065351400,5.596351318359375,-0.03621896356344223,0.01970737800002098,0.2763027548789978
1687502530075405300,5.6064052734375,-0.04900212585926056,0.011185267940163612,0.32956594228744507
1687502530085459500,5.61645947265625,-0.04048001766204834,0.005858949851244688,0.3796333372592926
1687502530095514000,5.62651416015625,-0.013848427683115005,-0.018642114475369453,0.407330185174942
1687502530105569000,5.636569091796875,0.02769685536623001,-0.07190529257059097,0.407330185174942
1687502530115624400,5.64662451171875,0.07563371956348419,-0.1358211189508438,0.3902859687805176
1687502530125679900,5.656679931640625,0.12037479132413864,-0.17310534417629242,0.37324175238609314
1687502530135735600,5.666735595703125,0.1363537460565567,-0.17204007506370544,0.37750279903411865
1687502530145791500,5.67679150390625,0.11717899888753891,-0.16351796686649323,0.4190480709075928
1687502530155847700,5.68684765625,0.06711161136627197,-0.16564849019050598,0.4925512671470642
1687502530165903600,5.696903564453125,0,-0.1507348120212555,0.5671197175979614
1687502530175959800,5.706959716796875,-0.04793686419725418,-0.14327795803546906,0.6171871423721313
1687502530186015000,5.717014892578125,-0.07882951200008392,-0.1826927214860916,0.6225134134292603
1687502530196069600,5.727069580078125,-0.09587372839450836,-0.23169484734535217,0.585229218006134
1687502530206124300,5.737124267578125,-0.10865689069032669,-0.276435911655426,0.530900776386261
1687502530216178700,5.7471787109375,-0.11185268312692642,-0.29348012804985046,0.4840291738510132
1687502530226233300,5.7572333984375,-0.10652636736631393,-0.29880645871162415,0.46165862679481506
1687502530236288000,5.7672880859375,-0.10013478249311447,-0.287088543176651,0.4680502116680145
1687502530246342700,5.7773427734375,-0.09054741263389587,-0.29880645871162415,0.5053344368934631
1687502530256397000,5.78739697265625,-0.0703074038028717,-0.332894891500473,0.5639239549636841
1687502530266451700,5.79745166015625,-0.02876211889088154,-0.3808317482471466,0.6331660747528076
1687502530276506400,5.80750634765625,0.029827382415533066,-0.44900861382484436,0.7087997794151306
1687502530286560800,5.817560791015625,0.10013478249311447,-0.5054675936698914,0.7854987978935242
1687502530296615400,5.827615478515625,0.19068218767642975,-0.4841623306274414,0.840892493724823
1687502530306670000,5.837670166015625,0.28549066185951233,-0.39681071043014526,0.8717851042747498
1687502530316724700,5.847724853515625,0.3419496417045593,-0.25193485617637634,0.8366314172744751
1687502530326779100,5.857779052734375,0.27057695388793945,0.13049480319023132,0.5916208028793335
1687502530336833800,5.867833740234375,-0.02450106292963028,0.7142592668533325,-0.12743216753005981
1687502530346888400,5.877888427734375,-0.6061350107192993,1.3289164304733276,-1.5868433713912964
1687502530356942800,5.88794287109375,-1.4594111442565918,1.8381123542785645,-4.07742977142334
1687502530366997500,5.89799755859375,-2.3638200759887695,1.9829882383346558,-7.809048175811768
1687502530377052200,5.90805224609375,-3.125483512878418,1.5472954511642456,-12.544145584106445
1687502530387106800,5.91810693359375,-3.6400058269500732,1.3171985149383545,-17.12051773071289
1687502530397161200,5.9281611328125,-3.8029911518096924,1.3970932960510254,-20.583690643310547
1687502530407215900,5.9382158203125,-3.422692060470581,0.8399603962898254,-22.94644546508789
1687502530417270500,5.9482705078125,-1.969672441482544,-0.9645962119102478,-24.090538024902344
1687502530427325000,5.958324951171875,0.9459540843963623,-3.4999237060546875,-21.511533737182617
1687502530437379600,5.968379638671875,4.132157802581787,-7.4435296058654785,-13.500751495361328
1687502530447434200,5.978434326171875,5.493564605712891,-10.659560203552246,-3.913379192352295
1687502530457489000,5.988489013671875,4.966259002685547,-9.441964149475098,2.7668890953063965
1687502530467543300,5.998543212890625,2.4692811965942383,-5.193692684173584,4.889959812164307
1687502530477598000,6.008597900390625,-0.7701855897903442,-0.636495053768158,4.912330150604248
1687502530487652600,6.018652587890625,-2.9699549674987793,2.808567523956299,4.640687942504883
1687502530497707000,6.02870703125,-3.711378574371338,3.9452037811279297,4.943222999572754
1687502530507761700,6.03876171875,-3.3406667709350586,3.2069761753082275,5.931787490844727
1687502530517816300,6.04881640625,-2.459693670272827,1.6655397415161133,7.331543922424316
1687502530527871000,6.05887109375,-1.629853367805481,-0.00798947736620903,8.768584251403809
1687502530537925400,6.06892529296875,-1.0673941373825073,-1.186171054840088,9.916938781738281
1687502530547980000,6.07897998046875,-0.829840362071991,-1.8391777276992798,10.694581031799316
1687502530558034700,6.08903466796875,-0.7882950901985168,-1.823198676109314,11.157970428466797
1687502530568089000,6.099089111328125,-0.7808382511138916,-1.2618048191070557,11.42961311340332
1687502530578143700,6.109143798828125,-0.8479498624801636,-0.7217161059379578,11.57022762298584
1687502530588198400,6.119198486328125,-1.0993521213531494,-0.2689790725708008,11.58301067352295
1687502530598253000,6.129253173828125,-1.31453537940979,0.46818336844444275,11.346522331237793
1687502530608307500,6.139307373046875,-1.4104090929031372,1.0849710702896118,10.65836238861084
1687502530618362000,6.149362060546875,-1.4679332971572876,1.3843101263046265,9.585641860961914
1687502530628416800,6.159416748046875,-1.5307838916778564,1.4844448566436768,8.18695068359375
1687502530638471200,6.16947119140625,-1.5542196035385132,1.4748575687408447,6.5869245529174805
1687502530648525800,6.17952587890625,-1.482846975326538,1.356613278388977,4.904873371124268
1687502530658580500,6.18958056640625,-1.2761858701705933,1.138234257698059,3.330413579940796
1687502530668635100,6.19963525390625,-0.9118656516075134,0.9113330245018005,1.8880466222763062
1687502530678689500,6.209689453125,-0.42610546946525574,0.5747097134590149,0.6235787272453308
1687502530688744200,6.219744140625,0.058589499443769455,0.1272990107536316,-0.40333545207977295
1687502530698798800,6.229798828125,0.5017392039299011,-0.27963170409202576,-1.1799126863479614
1687502530708853200,6.239853271484375,0.9097351431846619,-0.6247771382331848,-1.6837823390960693
1687502530718908000,6.249907958984375,1.2271836996078491,-0.9379646182060242,-1.9181402921676636
1687502530728962600,6.259962646484375,1.3709943294525146,-1.1350383758544922,-1.9266624450683594
1687502530739017200,6.270017333984375,1.3006869554519653,-1.143560528755188,-1.7764602899551392
1687502530749072000,6.28007177734375,1.0759162902832031,-1.0572742223739624,-1.56340754032135
1687502530759126300,6.290126220703125,0.7765771746635437,-0.9049414396286011,-1.37059485912323
1687502530769181000,6.300180908203125,0.4506065249443054,-0.6950845122337341,-1.2512853145599365
1687502530779235600,6.310235595703125,0.11078742146492004,-0.47777074575424194,-1.2012178897857666
1687502530789290200,6.320290283203125,-0.20559588074684143,-0.2018674612045288,-1.1713905334472656
1687502530799345000,6.330344970703125,-0.4708465337753296,0.06870950758457184,-1.102148413658142
1687502530809399600,6.340399658203125,-0.6732466220855713,0.3105243444442749,-0.9657946228981018
1687502530819454200,6.3504541015625,-0.7755119204521179,0.37337490916252136,-0.7804387807846069
1687502530829508900,6.3605087890625,-0.7307708859443665,0.23595589399337769,-0.587626039981842
1687502530839563500,6.3705634765625,-0.5603286623954773,0.08149266988039017,-0.41292282938957214
1687502530849618200,6.3806181640625,-0.35579806566238403,-0.004793686326593161,-0.23715431988239288
1687502530859672800,6.3906728515625,-0.188551664352417,-0.03675159439444542,-0.06777740269899368
1687502530869727500,6.4007275390625,-0.02876211889088154,0.020772641524672508,0.04727107286453247
1687502530879782000,6.410781982421875,0.11398320645093918,0.08575372397899628,0.09840372949838638
1687502530889836500,6.42083642578125,0.20559588074684143,0.1358211189508438,0.10586057603359222
1687502530899891200,6.43089111328125,0.23755379021167755,0.17097482085227966,0.07283740490674973
1687502530909945900,6.44094580078125,0.22477063536643982,0.22210747003555298,-0.004926844500005245
1687502530920000500,6.45100048828125,0.19068218767642975,0.25193485617637634,-0.13169321417808533
1687502530930055200,6.46105517578125,0.19494324922561646,0.16777902841567993,-0.3032006621360779
1687502530940109800,6.47110986328125,0.253532737493515,0.0516652874648571,-0.4565986394882202
1687502530950164500,6.48116455078125,0.31212225556373596,-0.0015978955198079348,-0.5205144286155701
1687502530960219100,6.49121923828125,0.3195790946483612,0.013315795920789242,-0.4704470634460449
1687502530970273800,6.501273681640625,0.2876211702823639,0.03249054029583931,-0.34687647223472595
1687502530980328400,6.511328369140625,0.2684464454650879,-0.029294749721884727,-0.20945745706558228
1687502530990383000,6.521383056640625,0.27057695388793945,-0.11558110266923904,-0.08162582665681839
1687502531000437800,6.531437744140625,0.253532737493515,-0.15393058955669403,0.05579318478703499
1687502531010492200,6.5414921875,0.18748639523983002,-0.13049480319023132,0.1910816729068756
1687502531020546800,6.551546875,0.09161267429590225,-0.0751010850071907,0.28802067041397095
1687502531030601500,6.5616015625,-0.013848427683115005,-0.01225053146481514,0.32104381918907166
1687502531040656100,6.57165625,-0.11611373722553253,-0.01225053146481514,0.28908592462539673
1687502531050710800,6.581710693359375,-0.2258358895778656,-0.037816859781742096,0.21238693594932556
1687502531060765400,6.591765380859375,-0.3430148959159851,-0.038882121443748474,0.13781848549842834
1687502531070820000,6.601820068359375,-0.43995389342308044,-0.022903168573975563,0.10053425282239914
1687502531080874800,6.611874755859375,-0.4857602119445801,-0.037816859781742096,0.11864373832941055
1687502531090929400,6.621929443359375,-0.48149916529655457,-0.08788424730300903,0.17829850316047668
1687502531100984000,6.631984130859375,-0.4431496858596802,-0.11025478690862656,0.24967116117477417
1687502531111038700,6.642038818359375,-0.3962780833244324,-0.0846884623169899,0.3146522343158722
1687502531121093400,6.65209326171875,-0.35153698921203613,-0.061252661049366,0.3647196292877197
1687502531131147800,6.662147705078125,-0.2929475009441376,-0.053795814514160156,0.4126565158367157
1687502531141202400,6.672202392578125,-0.21837905049324036,-0.042077913880348206,0.4787028431892395
1687502531151257000,6.682257080078125,-0.15233269333839417,-0.03249054029583931,0.5681849718093872
1687502531161311700,6.692311767578125,-0.10013478249311447,-0.011185267940163612,0.6704503297805786
1687502531171366400,6.702366455078125,-0.054328445345163345,0.01225053146481514,0.7705850601196289
1687502531181420800,6.7124208984375,-0.005326318088918924,0.030360013246536255,0.8558061718940735
1687502531191475500,6.722475341796875,0.06498108059167862,0.04420844092965126,0.9303746223449707
1687502531201530000,6.732530029296875,0.18642114102840424,0.09214530140161514,0.992159903049469
1687502531211584800,6.742584716796875,0.32703593373298645,0.17949692904949188,1.0347704887390137
1687502531221639200,6.75263916015625,0.38882121443748474,0.34567806124687195,1.00068199634552
1687502531231693800,6.76269384765625,0.30892646312713623,0.6918887495994568,0.6992124319076538
1687502531241748500,6.77274853515625,0.06391581892967224,1.001880407333374,-0.2456764280796051
1687502531251803000,6.782802978515625,-0.4143875539302826,0.8133288025856018,-2.2739384174346924
1687502531261857500,6.792857421875,-1.0695246458053589,0.5842971205711365,-5.876659870147705
1687502531271912200,6.802912109375,-1.6756596565246582,0.21465063095092773,-10.872746467590332
1687502531281966800,6.812966796875,-2.1252009868621826,0.3020022511482239,-16.53036117553711
1687502531292021200,6.823021240234375,-2.3776683807373047,0.9890972971916199,-21.402877807617188
1687502531302076000,6.833075927734375,-2.4096262454986572,1.7795228958129883,-24.984294891357422
1687502531312130600,6.843130615234375,-1.9856513738632202,1.2245205640792847,-27.66449737548828
1687502531322185000,6.85318505859375,-0.011717899702489376,0.09214530140161514,-27.47488021850586
1687502531332239600,6.863239501953125,3.2320098876953125,-3.160104513168335,-19.37248420715332
1687502531342294300,6.873294189453125,4.519913673400879,-9.443029403686523,-5.752024173736572
1687502531352349000,6.883348876953125,3.855189085006714,-11.741868019104004,5.205277442932129
1687502531362403300,6.8934033203125,1.411474347114563,-8.235020637512207,9.298020362854004
1687502531372458000,6.9034580078125,-1.8471671342849731,-2.9843361377716064,9.605881690979004
1687502531382512600,6.9135126953125,-3.9819555282592773,2.0767314434051514,8.781367301940918
1687502531392567000,6.923567138671875,-4.603003978729248,4.779305458068848,8.116642951965332
1687502531402621700,6.93362158203125,-4.261054515838623,4.76865291595459,7.953657627105713
1687502531412676400,6.94367626953125,-3.368363618850708,3.045056104660034,8.032486915588379
1687502531422731000,6.95373095703125,-2.2796642780303955,1.0114678144454956,8.013312339782715
1687502531432785400,6.963785400390625,-1.3390363454818726,-0.4426170289516449,7.788541793823242
1687502531442840000,6.973840087890625,-0.6018739342689514,-0.9230509400367737,7.402916431427002
1687502531452894700,6.983894775390625,-0.16405059397220612,-0.7781751155853271,7.011964797973633
1687502531462949400,6.993949462890625,-0.014913691207766533,-0.2860232889652252,6.682798385620117
1687502531473003800,7.004003662109375,0.021305272355675697,0.3147853910923004,6.349370956420898
1687502531483058400,7.014058349609375,0.041545283049345016,0.7025413513183594,5.930722236633301
1687502531493113000,7.024113037109375,0.03941475600004196,0.6205160617828369,5.433244228363037
1687502531503167500,7.03416748046875,0.021305272355675697,0.267913818359375,4.885698318481445
1687502531513222100,7.04422216796875,0.05219791829586029,0.0942758321762085,4.309391021728516
1687502531523276800,7.05427685546875,0.11824426054954529,0.18056218326091766,3.786346435546875
1687502531533331500,7.06433154296875,0.16831165552139282,0.4181159734725952,3.3463926315307617
1687502531543385900,7.0743857421875,0.2077264040708542,0.6279729008674622,2.992725133895874
1687502531553440500,7.0844404296875,0.26098960638046265,0.5821665525436401,2.6965818405151367
1687502531563495200,7.0944951171875,0.2961432933807373,0.28495803475379944,2.397242784500122
1687502531573549600,7.104549560546875,0.29401275515556335,-0.0005326318205334246,2.085120439529419
1687502531583604200,7.114604248046875,0.2673811614513397,-0.11451584100723267,1.7932381629943848
1687502531593659000,7.124658935546875,0.2215748429298401,-0.12942953407764435,1.5705981254577637
1687502531603713500,7.134713623046875,0.16085481643676758,-0.0985368862748146,1.3990906476974487
1687502531613768000,7.144767822265625,0.08841688185930252,-0.09321057051420212,1.24356210231781
1687502531623822600,7.154822509765625,0.0021305272821336985,-0.07936213910579681,1.088033676147461
1687502531633877200,7.164877197265625,-0.10120004415512085,-0.01970737800002098,0.9484841227531433
1687502531643931600,7.174931640625,-0.1970737725496292,0.03675159439444542,0.849414587020874
1687502531653986300,7.184986328125,-0.2545980215072632,0.01651158556342125,0.7780419588088989
1687502531664041000,7.195041015625,-0.2876211702823639,-0.05273054912686348,0.7130608558654785
1687502531674095600,7.205095703125,-0.3057306706905365,-0.09001477807760239,0.6587324142456055
1687502531684150000,7.21514990234375,-0.31318750977516174,-0.09534109383821487,0.6225134134292603
1687502531694204700,7.22520458984375,-0.33236226439476013,-0.059122130274772644,0.6022734045982361
1687502531704259300,7.23525927734375,-0.36964648962020874,0.037816859781742096,0.5905555486679077
1687502531714313700,7.245313720703125,-0.3920170068740845,0.13262532651424408,0.5830987095832825
1687502531724368400,7.255368408203125,-0.36858120560646057,0.17523586750030518,0.5692502856254578
1687502531734423000,7.265423095703125,-0.2972085475921631,0.1699095517396927,0.5159870982170105
1687502531744477700,7.275477783203125,-0.20026956498622894,0.09534109383821487,0.3977428078651428
1687502531754532400,7.285532470703125,-0.08522108942270279,-0.00798947736620903,0.22836589813232422
1687502531764587000,7.2955869140625,0.04793686419725418,-0.062317922711372375,0.045140545815229416
1687502531774641700,7.3056416015625,0.16298533976078033,-0.050600022077560425,-0.10719215124845505
1687502531784696300,7.3156962890625,0.23222747445106506,-0.01438105944544077,-0.1796300858259201
1687502531794751000,7.3257509765625,0.2780338227748871,-0.01438105944544077,-0.15086796879768372
1687502531804805400,7.335805419921875,0.3249054253101349,-0.07723161578178406,-0.07416898012161255
1687502531814860000,7.345860107421875,0.377103328704834,-0.13901691138744354,-0.02090579830110073
1687502531824914700,7.355914794921875,0.4282359778881073,-0.21465063095092773,-0.03688475489616394
1687502531834969300,7.36596923828125,0.47297704219818115,-0.30839383602142334,-0.12743216753005981
1687502531845024000,7.37602392578125,0.49641284346580505,-0.3616569936275482,-0.24035011231899261
1687502531855078700,7.38607861328125,0.46338969469070435,-0.33715593814849854,-0.3032006621360779
1687502531865133300,7.39613330078125,0.3536675274372101,-0.2167811542749405,-0.27230802178382874
1687502531875188000,7.40618798828125,0.20559588074684143,-0.04953476041555405,-0.16791218519210815
1687502531885242600,7.41624267578125,0.08202529698610306,0.0655137151479721,-0.043276336044073105
1687502531895297300,7.42629736328125,-0.0010652636410668492,0.059122130274772644,0.05579318478703499
1687502531905352000,7.43635205078125,-0.050067391246557236,-0.038882121443748474,0.10586057603359222
1687502531915406600,7.446406494140625,-0.07882951200008392,-0.1358211189508438,0.12397005409002304
1687502531925461200,7.456461181640625,-0.10226531326770782,-0.15606112778186798,0.13355742394924164
1687502531935515600,7.466515625,-0.13741901516914368,-0.0942758321762085,0.15060164034366608
1687502531945570300,7.4765703125,-0.18961693346500397,-0.022903168573975563,0.19001640379428864
1687502531955625000,7.486625,-0.245010644197464,0.025033695623278618,0.2539322078227997
1687502531965679600,7.4966796875,-0.26418536901474,0.022903168573975563,0.3285006880760193
1687502531975734300,7.506734375,-0.245010644197464,-0.013315795920789242,0.3838943839073181
1687502531985789000,7.516788818359375,-0.2119874656200409,-0.06870950758457184,0.40519964694976807
1687502531995843600,7.526843505859375,-0.17789903283119202,-0.12303794920444489,0.39561229944229126
1687502532005898200,7.536898193359375,-0.15339796245098114,-0.11451584100723267,0.3668501675128937
1687502532015953000,7.546952880859375,-0.14381058514118195,-0.1081242561340332,0.35832804441452026
1687502532026007600,7.557007568359375,-0.13528847694396973,-0.12516847252845764,0.37856805324554443
1687502532036062200,7.567062255859375,-0.10226531326770782,-0.12197268754243851,0.40519964694976807
1687502532046116900,7.577116943359375,-0.034088436514139175,-0.07829687744379044,0.4137217700481415
1687502532056171300,7.587171142578125,0.05965476483106613,0.01970737800002098,0.40200385451316833
1687502532066226000,7.597225830078125,0.18216007947921753,0.16245271265506744,0.36791542172431946
1687502532076280600,7.607280517578125,0.35153698921203613,0.2998717129230499,0.285890132188797
1687502532086335200,7.617335205078125,0.5688507556915283,0.343547523021698,0.04727107286453247
1687502532096390000,7.627389892578125,0.7957519292831421,0.2785664498806,-0.5130575895309448
1687502532106444500,7.637444580078125,0.9821730852127075,0.2625874876976013,-1.5985612869262695
1687502532116499200,7.647499267578125,1.068459391593933,0.31691592931747437,-3.268894672393799
1687502532126553900,7.657553955078125,0.8532761931419373,0.34993910789489746,-5.579451560974121
1687502532136608500,7.6676083984375,0.21092219650745392,0.4660528302192688,-8.814657211303711
1687502532146663200,7.6776630859375,-0.8234487771987915,0.9890972971916199,-13.27491569519043
1687502532156717800,7.6877177734375,-2.3137526512145996,2.063948392868042,-17.914138793945312
1687502532166772200,7.697772216796875,-4.111917495727539,3.3550479412078857,-21.652149200439453
1687502532176827000,7.707826904296875,-5.788642406463623,4.8890275955200195,-24.28761100769043
1687502532186881500,7.717881591796875,-6.990260124206543,5.929790019989014,-26.264739990234375
1687502532196936200,7.727936279296875,-6.534327030181885,5.451486587524414,-25.84183120727539
1687502532206990600,7.737990478515625,-2.9390623569488525,2.431464195251465,-18.676868438720703
1687502532217045200,7.748045166015625,1.4849774837493896,-5.008337020874023,-6.136584281921387
1687502532227100000,7.758099853515625,3.974498748779297,-11.899527549743652,5.011399745941162
1687502532237154300,7.768154296875,3.864776372909546,-12.552534103393555,10.205625534057617
1687502532247209000,7.778208984375,1.9014955759048462,-9.107471466064453,10.814955711364746
1687502532257263600,7.788263671875,-0.13209268450737,-3.5095109939575195,9.053009986877441
1687502532267318300,7.798318359375,-1.4519543647766113,1.897767186164856,6.9832024574279785
1687502532277372700,7.80837255859375,-2.162485122680664,4.994488716125488,5.612208366394043
1687502532287427300,7.81842724609375,-2.3531672954559326,5.009402275085449,5.1584062576293945
1687502532297482000,7.82848193359375,-1.9920430183410645,3.2613046169281006,5.4652018547058105
1687502532307536400,7.838536376953125,-1.1962910890579224,1.2287815809249878,6.376002311706543
1687502532317591000,7.848591064453125,-0.40693071484565735,-0.3616569936275482,7.515834331512451
1687502532327645700,7.858645751953125,0.03195790946483612,-1.214933156967163,8.49481201171875
1687502532337700400,7.868700439453125,0.1597895473241806,-1.0615352392196655,9.070054054260254
1687502532347754800,7.878754638671875,0.2024000883102417,-0.2636527419090271,9.21386432647705
1687502532357809400,7.888809326171875,0.20453062653541565,0.5555350184440613,9.062597274780273
1687502532367864000,7.898864013671875,0.12357058376073837,0.9603351950645447,8.694016456604004
1687502532377918500,7.90891845703125,-0.017044218257069588,0.9528783559799194,8.128360748291016
1687502532387973000,7.91897314453125,-0.16618113219738007,0.8708530068397522,7.408242702484131
1687502532398027800,7.92902783203125,-0.25672852993011475,0.7824361324310303,6.605033874511719
1687502532408082400,7.93908251953125,-0.30892646312713623,0.7185203433036804,5.716604232788086
1687502532418136800,7.94913671875,-0.33662331104278564,0.7728487849235535,4.758932113647461
1687502532428191500,7.95919140625,-0.33129698038101196,0.8484824895858765,3.7778244018554688
1687502532438246100,7.96924609375,-0.25246748328208923,0.8612656593322754,2.848914384841919
1687502532448300500,7.979300537109375,-0.1129179447889328,0.7281076908111572,1.984985589981079
1687502532458355200,7.989355224609375,0.030892645940184593,0.4575307369232178,1.1913641691207886
1687502532468409900,7.999409912109375,0.12570111453533173,0.1315600574016571,0.4914860129356384
1687502532478464500,8.009464599609375,0.122505322098732,0.010120004415512085,-0.0624510794878006
1687502532488519000,8.019518798828125,0.030892645940184593,0.029294749721884727,-0.4065312445163727
1687502532498573600,8.029573486328125,-0.15126743912696838,0.07190529257059097,-0.5311670899391174
1687502532508628200,8.039628173828126,-0.3430148959159851,0.15606112778186798,-0.5013396739959717
1687502532518682600,8.0496826171875,-0.49108654260635376,0.29454538226127625,-0.3671164810657501
1687502532528737300,8.0597373046875,-0.5091960430145264,0.46818336844444275,-0.1945437788963318
1687502532538792000,8.0697919921875,-0.43143177032470703,0.5587307810783386,-0.02090579830110073
1687502532548846600,8.0798466796875,-0.30892646312713623,0.4575307369232178,0.13781848549842834
1687502532558901000,8.08990087890625,-0.1555284857749939,0.29028433561325073,0.26032379269599915
1687502532568955600,8.09995556640625,-0.01597895473241806,0.14008216559886932,0.3338269889354706
1687502532579010300,8.11001025390625,0.07243792712688446,0.05699160322546959,0.3796333372592926
1687502532589064700,8.120064697265626,0.14274533092975616,0.12197268754243851,0.43928807973861694
1687502532599119400,8.130119384765624,0.1832253485918045,0.22743378579616547,0.5404881238937378
1687502532609174000,8.140174072265625,0.2077264040708542,0.3062632977962494,0.6672545075416565
1687502532619228700,8.150228759765625,0.27483803033828735,0.34141698479652405,0.7727156281471252
1687502532629283000,8.160282958984375,0.3920170068740845,0.2348906397819519,0.8014777302742004
1687502532639337700,8.170337646484375,0.5187833905220032,-0.017576850950717926,0.7215829491615295
1687502532649392400,8.180392333984376,0.6253097653388977,-0.20506325364112854,0.5490102767944336
1687502532659446800,8.19044677734375,0.687095046043396,-0.27537065744400024,0.34980595111846924
1687502532669501400,8.20050146484375,0.7201182246208191,-0.29454538226127625,0.18149429559707642
1687502532679556000,8.21055615234375,0.7669898271560669,-0.2721748650074005,0.061119500547647476
1687502532689610800,8.22061083984375,0.845819354057312,-0.22743378579616547,0.0035952648613601923
1687502532699665200,8.2306650390625,0.942758321762085,-0.22210747003555298,0.0025300011038780212
1687502532709719800,8.2407197265625,1.0130656957626343,-0.3094590902328491,0.03981423005461693
1687502532719774500,8.2507744140625,1.0290446281433105,-0.4127896726131439,0.0739026665687561
1687502532729829000,8.2608291015625,0.9874994158744812,-0.4277033507823944,0.11118689179420471
1687502532739883800,8.2708837890625,0.8809730410575867,-0.3573959469795227,0.17616797983646393
1687502532749938400,8.2809384765625,0.7222487330436707,-0.29348012804985046,0.2581932842731476
1687502532759993000,8.2909931640625,0.5667202472686768,-0.25193485617637634,0.33595752716064453
1687502532770047700,8.3010478515625,0.4751075804233551,-0.22849905490875244,0.40200385451316833
1687502532780102400,8.311102294921875,0.45486757159233093,-0.2167811542749405,0.4467449486255646
1687502532790157000,8.321156982421876,0.44847598671913147,-0.2743053734302521,0.4648544192314148
1687502532800211700,8.331211669921874,0.4197138845920563,-0.34674331545829773,0.4648544192314148
1687502532810266000,8.34126611328125,0.37497279047966003,-0.3243727684020996,0.4552670419216156
1687502532820320800,8.35132080078125,0.30253487825393677,-0.28069695830345154,0.4840291738510132
1687502532830375400,8.36137548828125,0.22370536625385284,-0.29348012804985046,0.547944962978363
1687502532840430000,8.37143017578125,0.16298533976078033,-0.2860232889652252,0.6203829050064087
1687502532850484700,8.381484619140625,0.12037479132413864,-0.28815382719039917,0.698147177696228
1687502532860539400,8.391539306640626,0.09587372839450836,-0.3446127772331238,0.78656405210495
1687502532870594000,8.401593994140624,0.08309056609869003,-0.41598546504974365,0.8845682740211487
1687502532880648700,8.411648681640624,0.08096003532409668,-0.47670549154281616,0.983637809753418
1687502532890703400,8.421703369140625,0.08309056609869003,-0.5459476113319397,1.0965557098388672
1687502532900758000,8.431758056640625,0.08096003532409668,-0.6279729008674622,1.2275831699371338
1687502532910812700,8.441812744140625,0.05752423778176308,-0.6897581815719604,1.3713937997817993
1687502532920867300,8.451867431640625,0.0031957910396158695,-0.7089329361915588,1.4960296154022217
1687502532930921700,8.461921630859376,-0.06498108059167862,-0.662061333656311,1.5642064809799194
1687502532940976400,8.471976318359374,-0.12889690697193146,-0.5789707899093628,1.5631412267684937
1687502532951031000,8.482031005859374,-0.17257271707057953,-0.44048652052879333,1.4789854288101196
1687502532961085700,8.492085693359375,-0.20879167318344116,-0.2860232889652252,1.3202611207962036
1687502532971140400,8.502140380859375,-0.34514543414115906,-0.22743378579616547,1.0667283535003662
1687502532981195000,8.512195068359375,-0.7265098094940186,-0.34993910789489746,0.6278397440910339
1687502532991249700,8.522249755859375,-1.4434322118759155,-0.45007389783859253,-0.25206801295280457
1687502533001304300,8.53230419921875,-2.539588451385498,-0.09640636295080185,-1.9351845979690552
1687502533011359000,8.54235888671875,-3.711378574371338,0.5033370852470398,-4.760263919830322
1687502533021413600,8.55241357421875,-4.463454723358154,0.7792403697967529,-9.0607328414917
1687502533031468300,8.56246826171875,-4.751075744628906,1.123320460319519,-14.800374031066895
1687502533041523000,8.57252294921875,-4.983303546905518,1.9723355770111084,-20.33867835998535
1687502533051577600,8.58257763671875,-5.318861484527588,3.477553129196167,-24.588016510009766
1687502533061632000,8.592632080078126,-5.766272068023682,4.506597995758057,-27.429073333740234
1687502533071686700,8.602686767578126,-5.364667892456055,3.2357382774353027,-28.783023834228516
1687502533081741300,8.6127412109375,-2.4042999744415283,0.2956106662750244,-24.590147018432617
1687502533091796000,8.6227958984375,1.2090742588043213,-5.60275411605835,-10.838658332824707
1687502533101850600,8.6328505859375,2.9486496448516846,-13.987443923950195,4.372241497039795
1687502533111905300,8.6429052734375,3.467433214187622,-13.937376976013184,11.877023696899414
1687502533121960000,8.6529599609375,2.8304054737091064,-8.861395835876465,13.115925788879395
1687502533132014600,8.6630146484375,1.5467628240585327,-2.9204201698303223,11.459440231323242
1687502533142069200,8.6730693359375,0.2769685387611389,1.7156070470809937,8.880436897277832
1687502533152124000,8.6831240234375,-1.0056089162826538,3.7673048973083496,6.233256816864014
1687502533162178600,8.693178466796875,-2.0005650520324707,3.766239643096924,4.062249660491943
1687502533172233200,8.703233154296875,-2.3584938049316406,3.0642309188842773,3.003377676010132
1687502533182287600,8.71328759765625,-2.098569393157959,2.2599568367004395,3.03640079498291
1687502533192342300,8.72334228515625,-1.4253227710723877,1.6271902322769165,3.7597148418426514
1687502533202397000,8.73339697265625,-0.5518065690994263,1.1638004779815674,4.668384552001953
1687502533212451600,8.74345166015625,0.20453062653541565,0.6066676378250122,5.333109378814697
1687502533222506200,8.75350634765625,0.741423487663269,0.034621067345142365,5.594099044799805
1687502533232561000,8.763560791015625,1.0620678663253784,-0.4319643974304199,5.497159957885742
1687502533242615600,8.773615478515625,1.168594241142273,-0.6940192580223083,5.121121883392334
1687502533252670200,8.783670166015625,1.0865689516067505,-0.7025413513183594,4.607664585113525
1687502533262724900,8.793724853515625,0.8586025238037109,-0.5896234512329102,4.077163219451904
1687502533272779500,8.803779541015626,0.5123918056488037,-0.4330296814441681,3.5168347358703613
1687502533282834200,8.813834228515624,0.14807164669036865,-0.13369058072566986,2.897916555404663
1687502533292888800,8.823888916015624,-0.15126743912696838,0.17949692904949188,2.278998374938965
1687502533302943500,8.833943603515625,-0.3440801501274109,0.34141698479652405,1.7655413150787354
1687502533312998000,8.843997802734375,-0.39734333753585815,0.35952648520469666,1.3948296308517456
1687502533323052500,8.854052490234375,-0.309991717338562,0.31691592931747437,1.1711242198944092
1687502533333107200,8.864107177734375,-0.1267663687467575,0.21784640848636627,1.0784462690353394
1687502533343161900,8.874161865234376,0.12570111453533173,0.04527370631694794,1.0986863374710083
1687502533353216500,8.884216552734374,0.38456016778945923,-0.20825904607772827,1.1977558135986328
1687502533363271200,8.894271240234374,0.5944170951843262,-0.4575307369232178,1.313869595527649
1687502533373325800,8.904325927734375,0.7147918939590454,-0.6631265878677368,1.4108085632324219
1687502533383380500,8.91438037109375,0.7755119204521179,-0.7558045387268066,1.4960296154022217
1687502533393435100,8.92443505859375,0.7723161578178406,-0.6695181727409363,1.5674022436141968
1687502533403489800,8.93448974609375,0.6934866309165955,-0.4181159734725952,1.6472970247268677
1687502533413544400,8.94454443359375,0.5667202472686768,-0.17630113661289215,1.7644760608673096
1687502533423599000,8.95459912109375,0.4388886094093323,-0.059122130274772644,1.9029603004455566
1687502533433653500,8.964653564453124,0.3376885652542114,-0.03568633273243904,2.0222699642181396
1687502533443708200,8.974708251953125,0.26418536901474,-0.03568633273243904,2.0861856937408447
1687502533453762800,8.9847626953125,0.21518325805664062,-0.005858949851244688,2.084055185317993
1687502533463817500,8.9948173828125,0.17576849460601807,0.06764423847198486,2.0382487773895264
1687502533473872100,9.0048720703125,0.13422322273254395,0.1645832359790802,1.9722024202346802
1687502533483926800,9.0149267578125,0.09587372839450836,0.26045694947242737,1.9072214365005493
1687502533493981400,9.0249814453125,0.06924213469028473,0.3254380524158478,1.8358486890792847
1687502533504036000,9.0350361328125,0.05965476483106613,0.3051980435848236,1.7357139587402344
1687502533514090800,9.0450908203125,0.09374319761991501,0.26684853434562683,1.5833812952041626
1687502533524145400,9.0551455078125,0.17044217884540558,0.28389275074005127,1.3873727321624756
1687502533534200000,9.065199951171875,0.2577938139438629,0.34141698479652405,1.155145287513733
1687502533544254700,9.075254638671876,0.3536675274372101,0.35100436210632324,0.895220935344696
1687502533554309000,9.08530908203125,0.4506065249443054,0.2444780021905899,0.6161218881607056
1687502533564363800,9.09536376953125,0.5113265514373779,0.1411474347114563,0.331696480512619
1687502533574418400,9.10541845703125,0.5368928909301758,0.058056868612766266,0.10266478359699249
1687502533584473000,9.11547314453125,0.5571328997612,-0.11664637178182602,-0.01771000772714615
1687502533594527700,9.12552783203125,0.5986781716346741,-0.2487390637397766,-0.02197106182575226
1687502533604582400,9.13558251953125,0.6380929350852966,-0.2817622423171997,0.053662657737731934
1687502533614637000,9.145636962890626,0.6434192657470703,-0.2487390637397766,0.163384810090065
1687502533624691700,9.155691650390626,0.6093307733535767,-0.20080219209194183,0.2656501233577728
1687502533634746400,9.165746337890624,0.53582763671875,-0.15393058955669403,0.3380880355834961
1687502533644801000,9.175801025390625,0.4175833463668823,-0.08575372397899628,0.3838943839073181
1687502533654855700,9.185855712890625,0.2684464454650879,-0.03675159439444542,0.41159123182296753
1687502533664910300,9.195910400390625,0.1033305749297142,-0.026098959147930145,0.4190480709075928
1687502533674965000,9.205965087890625,-0.022370535880327225,-0.0655137151479721,0.3838943839073181
1687502533685019400,9.216019287109376,-0.0703074038028717,-0.09534109383821487,0.31678277254104614
1687502533695074000,9.226073974609376,-0.07456845790147781,-0.1315600574016571,0.2390185296535492
1687502533705128700,9.236128662109374,-0.08202529698610306,-0.19547587633132935,0.15060164034366608
1687502533715183400,9.246183349609375,-0.10439583659172058,-0.2348906397819519,0.0600542388856411
1687502533725238000,9.256238037109375,-0.1406148076057434,-0.24341274797916412,-0.011318426579236984
1687502533735292700,9.266292724609375,-0.18748639523983002,-0.22956430912017822,-0.03368896245956421
1687502533745347300,9.276347412109375,-0.2300969511270523,-0.23169484734535217,0.016378428786993027
1687502533755402000,9.286402099609376,-0.2396843135356903,-0.2636527419090271,0.12716585397720337
1687502533765456600,9.29645654296875,-0.20985694229602814,-0.3051980435848236,0.26458486914634705
1687502533775511300,9.30651123046875,-0.16085481643676758,-0.34567806124687195,0.39241650700569153
1687502533785566000,9.31656591796875,-0.10759162902832031,-0.3861580789089203,0.4936165511608124
1687502533795620600,9.32662060546875,-0.058589499443769455,-0.41705071926116943,0.5713807940483093
1687502533805675000,9.336675048828125,-0.014913691207766533,-0.42131176590919495,0.6235787272453308
1687502533815729700,9.346729736328125,0.014913691207766533,-0.4095938801765442,0.6544713377952576
1687502533825784300,9.356784423828126,0.03941475600004196,-0.36485278606414795,0.6832334399223328
1687502533835839000,9.3668388671875,0.10120004415512085,-0.21252009272575378,0.7343661189079285
1687502533845893600,9.3768935546875,0.19174745678901672,0.01438105944544077,0.8259788155555725
1687502533855948300,9.3869482421875,0.27909907698631287,0.15819165110588074,0.9729851484298706
1687502533866003000,9.3970029296875,0.35047173500061035,0.28069695830345154,1.1359704732894897
1687502533876057600,9.4070576171875,0.36432015895843506,0.19441060721874237,1.0539451837539673
1687502533886112300,9.4171123046875,0.21092219650745392,0.12623374164104462,0.16658060252666473
1687502533896167000,9.4271669921875,-0.3334275186061859,0.4138549268245697,-2.3069615364074707
1687502533906221600,9.4372216796875,-1.4029521942138672,0.8665919899940491,-7.1698899269104
1687502533916276200,9.447276123046874,-2.748380184173584,1.4269206523895264,-13.650954246520996
1687502533926331000,9.457330810546875,-4.120439529418945,2.366483211517334,-19.390594482421875
1687502533936385300,9.46738525390625,-5.467998504638672,3.7875449657440186,-23.531274795532227
1687502533946440000,9.47743994140625,-6.629135608673096,4.865591526031494,-26.34783172607422
1687502533956494600,9.48749462890625,-6.6206135749816895,5.065861225128174,-27.04877471923828
1687502533966549200,9.49754931640625,-3.4610416889190674,2.1939103603363037,-21.089689254760742
1687502533976604000,9.50760400390625,0.4644549489021301,-4.528968334197998,-6.614887714385986
1687502533986658600,9.517658447265624,2.425605297088623,-11.8973970413208,6.732865810394287
1687502533996713200,9.527713134765625,3.3364057540893555,-11.671561241149902,12.489550590515137
1687502534006767900,9.537767822265625,3.2479889392852783,-6.893853664398193,13.127643585205078
1687502534016822500,9.547822509765625,2.40643048286438,-1.3502216339111328,11.22188663482666
1687502534026877200,9.557877197265626,0.9683246612548828,1.7401081323623657,8.30199909210205
1687502534036931800,9.567931884765626,-0.5017392039299011,2.340916872024536,5.493964195251465
1687502534046986500,9.577986572265624,-1.3166658878326416,2.247173547744751,3.532813787460327
1687502534057041000,9.588041015625,-1.4391711950302124,1.9030934572219849,2.6635584831237793
1687502534067095600,9.598095458984375,-1.260206937789917,1.4343775510787964,2.6731460094451904
1687502534077150200,9.608150146484375,-0.9906951785087585,0.9560741186141968,3.132274627685547
1687502534087204900,9.618204833984375,-0.7382277250289917,0.5278381109237671,3.6361443996429443
1687502534097259500,9.628259521484376,-0.5262402296066284,0.39361491799354553,4.00792121887207
1687502534107314200,9.638314208984376,-0.34940648078918457,0.6791055798530579,4.259323596954346
1687502534117368800,9.648368896484374,-0.1651158630847931,1.0998847484588623,4.389285564422607
1687502534127423500,9.658423583984375,0.010652636177837849,1.068992018699646,4.391416072845459
1687502534137478100,9.66847802734375,0.11717899888753891,0.38402754068374634,4.227365493774414
1687502534147532800,9.67853271484375,0.19494324922561646,-0.2860232889652252,3.875828504562378
1687502534157587500,9.68858740234375,0.26098960638046265,-0.5725792050361633,3.4326789379119873
1687502534167642000,9.69864208984375,0.253532737493515,-0.5960150361061096,3.006573438644409
1687502534177696800,9.70869677734375,0.1693769246339798,-0.45859599113464355,2.6241438388824463
1687502534187751200,9.718751220703124,0.06285055726766586,-0.2253032624721527,2.303499460220337
1687502534197805800,9.728805908203125,-0.042610544711351395,0.07829687744379044,2.0776636600494385
1687502534207860500,9.738860595703125,-0.12037479132413864,0.21252009272575378,1.9445055723190308
1687502534217915100,9.7489150390625,-0.13422322273254395,0.07829687744379044,1.8454360961914062
1687502534227969800,9.7589697265625,-0.0894821435213089,-0.21358536183834076,1.7506276369094849
1687502534238024400,9.7690244140625,-0.02450106292963028,-0.5193160176277161,1.6675370931625366
1687502534248079000,9.7790791015625,0.046871598809957504,-0.6609960794448853,1.5940338373184204
1687502534258133800,9.7891337890625,0.1267663687467575,-0.6141244769096375,1.5205307006835938
1687502534268188400,9.7991884765625,0.18109482526779175,-0.4426170289516449,1.4438316822052002
1687502534278243000,9.8092431640625,0.17789903283119202,-0.2498043179512024,1.3660674095153809
1687502534288297700,9.819297607421875,0.10226531326770782,-0.09321057051420212,1.3042821884155273
1687502534298352400,9.829352294921875,-0.023435799404978752,0.03142527863383293,1.2627369165420532
1687502534308407000,9.839406982421876,-0.1459411233663559,0.09747162461280823,1.2307789325714111
1687502534318462000,9.8494619140625,-0.21518325805664062,0.10599373281002045,1.1871031522750854
1687502534328516600,9.8595166015625,-0.22903168201446533,0.09640636295080185,1.1167957782745361
1687502534338571300,9.8695712890625,-0.2077264040708542,0.10492847114801407,1.013465166091919
1687502534348626000,9.8796259765625,-0.1693769246339798,0.12942953407764435,0.8813725113868713
1687502534358680600,9.8896806640625,-0.11930952966213226,0.2167811542749405,0.7482145428657532
1687502534368735200,9.8997353515625,-0.058589499443769455,0.31265488266944885,0.643818736076355
1687502534378790000,9.909789794921876,-0.012783164158463478,0.41065913438796997,0.5543365478515625
1687502534388844500,9.919844482421874,0.004261054564267397,0.5139896869659424,0.4605933725833893
1687502534398899500,9.9298994140625,0.018109481781721115,0.5289034247398376,0.3455449044704437
1687502534408954000,9.9399541015625,0.07456845790147781,0.4053328037261963,0.17084164917469025
1687502534419008800,9.9500087890625,0.15659375488758087,0.19654114544391632,-0.08056056499481201
1687502534429063400,9.9600634765625,0.24288010597229004,-0.022903168573975563,-0.35646384954452515
1687502534439118000,9.9701181640625,0.3302317261695862,-0.20932430028915405,-0.5812344551086426
1687502534449172700,9.9801728515625,0.39308229088783264,-0.35100436210632324,-0.6973482370376587
1687502534459227400,9.990227294921874,0.4101265072822571,-0.41065913438796997,-0.683499813079834
1687502534469282000,10.000281982421875,0.40266966819763184,-0.3659180700778961,-0.5663207769393921
1687502534479337000,10.0103369140625,0.3760380744934082,-0.28815382719039917,-0.38948702812194824
1687502534489391600,10.0203916015625,0.33555805683135986,-0.2018674612045288,-0.203065887093544
1687502534499446300,10.0304462890625,0.2929475009441376,-0.14221268892288208,-0.04540686309337616
1687502534509501000,10.0405009765625,0.24714116752147675,-0.1411474347114563,0.0739026665687561
1687502534519555600,10.0505556640625,0.18429060280323029,-0.16564849019050598,0.17510271072387695
1687502534529610200,10.0606103515625,0.11185268312692642,-0.1603221744298935,0.2763027548789978
1687502534539665000,10.070664794921875,0.04048001766204834,-0.07936213910579681,0.39561229944229126
1687502534549719600,10.080719482421875,-0.02024000883102417,-0.026098959147930145,0.5298355221748352
1687502534559774500,10.0907744140625,-0.04793686419725418,-0.01438105944544077,0.6491450071334839
1687502534569829000,10.1008291015625,-0.02876211889088154,-0.029294749721884727,0.7226482033729553
1687502534579883800,10.1108837890625,0.025566328316926956,-0.09640636295080185,0.7375619411468506
1687502534589938400,10.1209384765625,0.08096003532409668,-0.1880190372467041,0.7087997794151306
1687502534599993000,10.1309931640625,0.11930952966213226,-0.23169484734535217,0.660862922668457
1687502534610047700,10.1410478515625,0.11398320645093918,-0.2551306486129761,0.6107955574989319
1687502534620102400,10.151102294921875,0.06498108059167862,-0.22423799335956573,0.5745765566825867
1687502534630157000,10.161156982421875,0,-0.1645832359790802,0.5671197175979614
1687502534640212000,10.1712119140625,-0.05326318368315697,-0.1315600574016571,0.5905555486679077
1687502534650266600,10.1812666015625,-0.08628635853528976,-0.12623374164104462,0.6448839902877808
1687502534660321300,10.1913212890625,-0.09587372839450836,-0.13262532651424408,0.7226482033729553
1687502534670376000,10.2013759765625,-0.07669898122549057,-0.13262532651424408,0.803608238697052
1687502534680430600,10.2114306640625,-0.03195790946483612,-0.13262532651424408,0.8845682740211487
1687502534690485200,10.2214853515625,0.02876211889088154,-0.10599373281002045,0.9580714702606201
1687502534700540000,10.231539794921876,0.10865689069032669,-0.046338967978954315,1.0028125047683716
1687502534710594600,10.241594482421876,0.2119874656200409,0.04314317926764488,1.00813889503479
1687502534720649500,10.2516494140625,0.3291664719581604,0.09534109383821487,0.9932252168655396
1687502534730704100,10.2617041015625,0.4836297035217285,0.10705899447202682,0.9676588773727417
1687502534740758800,10.2717587890625,0.716922402381897,0.13475584983825684,0.9335704445838928
1687502534750813400,10.2818134765625,1.0056089162826538,0.15180006623268127,0.8664588332176208
1687502534760868000,10.2918681640625,1.2261184453964233,0.18588849902153015,0.5340965390205383
1687502534770922800,10.3019228515625,1.2644679546356201,0.19547587633132935,-0.3266364634037018
1687502534780977400,10.311977294921874,0.9470193982124329,-0.004793686326593161,-1.8361150026321411
1687502534791032000,10.322031982421874,0.1651158630847931,-0.3382211923599243,-4.294743537902832
1687502534801087000,10.3320869140625,-1.0439584255218506,-0.033555805683135986,-8.166976928710938
1687502534811141600,10.3421416015625,-2.5481107234954834,1.197888970375061,-13.561471939086914
1687502534821196300,10.3521962890625,-4.33668851852417,2.9545087814331055,-19.00922966003418
1687502534831251000,10.3622509765625,-6.117809295654297,5.093558311462402,-23.391725540161133
1687502534841305600,10.3723056640625,-7.684812068939209,7.053643226623535,-26.329721450805664
1687502534851360300,10.3823603515625,-8.676572799682617,7.464835166931152,-28.176889419555664
1687502534861415000,10.392414794921875,-7.194790840148926,6.349503993988037,-27.017881393432617
1687502534871469600,10.402469482421875,-1.83544921875,0.774979293346405,-17.442228317260742
1687502534881524200,10.412524169921875,2.832535982131958,-9.921333312988281,-1.7114791870117188
1687502534891579100,10.4225791015625,5.0078043937683105,-16.53768539428711,10.314282417297363
1687502534901633800,10.4326337890625,4.874646186828613,-14.39437484741211,14.639252662658691
1687502534911688400,10.4426884765625,2.995521306991577,-8.624907493591309,14.171601295471191
1687502534921743000,10.4527431640625,0.8926909565925598,-1.7944365739822388,12.084750175476074
1687502534931797800,10.4627978515625,-1.0002825260162354,2.9630308151245117,9.790172576904297
1687502534941852400,10.472852294921875,-2.3648853302001953,4.70899772644043,7.630882740020752
1687502534951907000,10.482906982421875,-2.9795424938201904,4.181692600250244,5.801825046539307
1687502534961961700,10.492961669921876,-2.85703706741333,2.9747486114501953,4.390350818634033
1687502534972016600,10.5030166015625,-2.261554718017578,1.8381123542785645,3.4007210731506348
1687502534982071300,10.5130712890625,-1.4136048555374146,1.1297121047973633,2.805238723754883
1687502534992126000,10.5231259765625,-0.5826992392539978,0.774979293346405,2.6220133304595947
1687502535002180600,10.5331806640625,0.014913691207766533,0.5512739419937134,2.7082996368408203
1687502535012235300,10.5432353515625,0.3675159513950348,0.4468781054019928,2.8425228595733643
1687502535022290000,10.5532900390625,0.52837073802948,0.4319643974304199,2.9501144886016846
1687502535032344600,10.563344482421876,0.5560676455497742,0.211454838514328,3.023617744445801
1687502535042399200,10.573399169921874,0.49641284346580505,-0.3488738536834717,3.0342702865600586
1687502535052454100,10.5834541015625,0.38456016778945923,-0.89641934633255,2.9799418449401855
1687502535062508800,10.5935087890625,0.30360013246536255,-1.072187900543213,2.8563714027404785
1687502535072563500,10.6035634765625,0.2769685387611389,-0.7600656151771545,2.7317354679107666
1687502535082618000,10.6136181640625,0.2780338227748871,-0.1976063996553421,2.680602788925171
1687502535092672800,10.6236728515625,0.27483803033828735,0.31158962845802307,2.705103874206543
1687502535102727400,10.6337275390625,0.2865559160709381,0.6705834865570068,2.784998655319214
1687502535112782000,10.643781982421874,0.3621896505355835,0.6151897311210632,2.8712849617004395
1687502535122836700,10.653836669921875,0.4846949577331543,0.1038632020354271,2.908569097518921
1687502535132891600,10.6638916015625,0.5912213325500488,-0.5044023394584656,2.8510448932647705
1687502535142946300,10.6739462890625,0.6593981981277466,-0.8612656593322754,2.6965818405151367
1687502535153001000,10.6840009765625,0.6849645376205444,-0.8538088202476501,2.4739415645599365
1687502535163055600,10.6940556640625,0.6476802825927734,-0.6162550449371338,2.2204089164733887
1687502535173110300,10.7041103515625,0.5571328997612,-0.31158962845802307,1.950897216796875
1687502535183165200,10.714165283203124,0.42930126190185547,-0.06764423847198486,1.6845812797546387
1687502535193219800,10.7242197265625,0.2833601236343384,0.020772641524672508,1.4480928182601929
1687502535203274500,10.7342744140625,0.12996216118335724,-0.0846884623169899,1.2531495094299316
1687502535213329400,10.744329345703125,0.017044218257069588,-0.2348906397819519,1.1082736253738403
1687502535223384000,10.754384033203126,-0.026631591841578484,-0.33182963728904724,1.0177263021469116
1687502535233438700,10.764438720703126,-0.02876211889088154,-0.3211769759654999,0.983637809753418
1687502535243493600,10.77449365234375,-0.005326318088918924,-0.23915168642997742,1.0092041492462158
1687502535253548300,10.78454833984375,0.03941475600004196,-0.11132004857063293,1.0944252014160156
1687502535263603000,10.79460302734375,0.09480846673250198,0.05592634156346321,1.2105389833450317
1687502535273657900,10.804657958984375,0.1416800618171692,0.23915168642997742,1.3202611207962036
1687502535283712500,10.81471240234375,0.18002955615520477,0.3669833242893219,1.3713937997817993
1687502535293767200,10.82476708984375,0.2396843135356903,0.3488738536834717,1.3277180194854736
1687502535303822000,10.834822021484374,0.3376885652542114,0.20932430028915405,1.1828421354293823
1687502535313876700,10.844876708984375,0.4324970245361328,0.04527370631694794,0.9847030639648438
1687502535323931400,10.854931396484375,0.4974781274795532,-0.053795814514160156,0.7993472218513489
1687502535333986000,10.864986083984375,0.519848644733429,-0.05592634156346321,0.652340829372406
1687502535344041000,10.875041015625,0.5028044581413269,0.030360013246536255,0.5404881238937378
1687502535354095600,10.885095703125,0.452737033367157,0.09534109383821487,0.4456796646118164
1687502535364150300,10.895150390625,0.40266966819763184,0.03249054029583931,0.3561975359916687
1687502535374205200,10.905205078125,0.3760380744934082,-0.07190529257059097,0.2432795912027359
1687502535384259800,10.915259765625,0.36005911231040955,-0.1315600574016571,0.11757847666740417
1687502535394314500,10.925314453125,0.320644348859787,-0.12942953407764435,0.004660528618842363
1687502535404369400,10.935369384765625,0.25566327571868896,-0.0655137151479721,-0.0954742506146431
1687502535414424000,10.945424072265626,0.18535587191581726,0.015446322970092297,-0.1988048255443573
1687502535424478700,10.955478759765626,0.11930952966213226,0.034621067345142365,-0.28509119153022766
1687502535434533600,10.96553369140625,0.066046342253685,-0.07829687744379044,-0.3202448785305023
1687502535444588300,10.97558837890625,0.02024000883102417,-0.24767379462718964,-0.2968090772628784
1687502535454643000,10.985642822265625,-0.012783164158463478,-0.35952648520469666,-0.22011010348796844
1687502535464697900,10.99569775390625,-0.0330231711268425,-0.40746334195137024,-0.11571425944566727
1687502535474752500,11.00575244140625,-0.046871598809957504,-0.4149201810359955,0.009986846707761288
1687502535484807200,11.01580712890625,-0.07669898122549057,-0.38722333312034607,0.14634059369564056
1687502535494862000,11.025862060546874,-0.122505322098732,-0.33182963728904724,0.2805638015270233
1687502535504916700,11.035916748046875,-0.17044217884540558,-0.2732401192188263,0.3945470154285431
1687502535514971400,11.045971435546875,-0.21837905049324036,-0.24341274797916412,0.4691154658794403
1687502535525026300,11.0560263671875,-0.26631590723991394,-0.2551306486129761,0.4978775978088379
1687502535535081000,11.0660810546875,-0.30360013246536255,-0.2498043179512024,0.4882902204990387
1687502535545135600,11.076135498046876,-0.3302317261695862,-0.24767379462718964,0.4648544192314148
1687502535555190500,11.0861904296875,-0.3526022732257843,-0.21571588516235352,0.44781020283699036
1687502535565245200,11.0962451171875,-0.3760380744934082,-0.13262532651424408,0.4542017877101898
1687502535575299800,11.1062998046875,-0.40266966819763184,-0.033555805683135986,0.48189863562583923
1687502535585354800,11.116354736328125,-0.41119176149368286,0.026098959147930145,0.5127912759780884
1687502535595409400,11.126409423828125,-0.3632549047470093,0.01438105944544077,0.5351617932319641
1687502535605464000,11.136464111328126,-0.2492716908454895,-0.05592634156346321,0.5564671158790588
1687502535615519000,11.14651904296875,-0.08522108942270279,-0.16138744354248047,0.5916208028793335
1687502535625573600,11.15657373046875,0.11824426054954529,-0.26578328013420105,0.6406229138374329
1687502535635628300,11.166628173828125,0.3334275186061859,-0.3861580789089203,0.7098650336265564
1687502535645683200,11.17668310546875,0.5518065690994263,-0.48309704661369324,0.7961513996124268
1687502535655737900,11.18673779296875,0.784034013748169,-0.5384907722473145,0.8920251131057739
1687502535665792500,11.19679248046875,1.017326831817627,-0.5736444592475891,0.9974862337112427
1687502535675847400,11.206847412109376,1.2346405982971191,-0.6247771382331848,1.1093388795852661
1687502535685902000,11.216902099609374,1.3976259231567383,-0.6982803344726562,1.2009515762329102
1687502535695956700,11.226956787109375,1.4210617542266846,-0.7131940126419067,1.1572757959365845
1687502535706011400,11.237011474609375,1.1195920705795288,-0.5246423482894897,0.6683197617530823
1687502535716066000,11.247066162109375,0.366450697183609,-0.034621067345142365,-0.6174534559249878
1687502535726120700,11.25712060546875,-0.7563371658325195,0.7142592668533325,-3.2007176876068115
1687502535736175400,11.26717529296875,-2.144375801086426,1.4556827545166016,-7.503317832946777
1687502535746230000,11.27722998046875,-3.4855425357818604,2.296175718307495,-13.115126609802246
1687502535756285000,11.287284912109374,-4.688225269317627,3.4104416370391846,-18.37965965270996
1687502535766339600,11.297339599609375,-5.816339492797852,4.864526271820068,-22.343505859375
1687502535776394200,11.307394287109375,-6.9231486320495605,6.534859657287598,-25.17071533203125
1687502535786449000,11.317448974609375,-7.765771865844727,6.550838947296143,-27.345983505249023
1687502535796503600,11.327503662109375,-6.366015434265137,3.9228334426879883,-28.297264099121094
1687502535806558200,11.33755810546875,-0.8021435141563416,-1.7699354887008667,-22.142169952392578
1687502535816612900,11.34761279296875,4.0160441398620605,-10.077926635742188,-6.7533721923828125
1687502535826667500,11.35766748046875,5.490368843078613,-17.908679962158203,7.8023905754089355
1687502535836722400,11.367722412109375,4.753206253051758,-15.257238388061523,13.902090072631836
1687502535846777000,11.377777099609375,1.8088176250457764,-8.841156005859375,13.659210205078125
1687502535856831700,11.387831787109375,-1.453019618988037,-2.3100242614746094,11.358240127563477
1687502535866886400,11.397886474609376,-3.676224708557129,2.8160245418548584,9.072184562683105
1687502535876941000,11.407941162109376,-4.618983268737793,5.585710048675537,7.274019718170166
1687502535886995700,11.41799560546875,-4.6456146240234375,5.535642623901367,6.096903324127197
1687502535897050400,11.42805029296875,-4.048001766204834,3.8131113052368164,5.454549312591553
1687502535907105000,11.43810498046875,-3.0828728675842285,1.8200029134750366,5.04974889755249
1687502535917160000,11.448159912109375,-1.9718029499053955,0.3020022511482239,4.765323638916016
1687502535927214600,11.458214599609375,-0.9704551696777344,-0.5139896869659424,4.642818450927734
1687502535937269200,11.468269287109376,-0.2812296152114868,-0.6759097576141357,4.730170249938965
1687502535947324000,11.478323974609374,0.09480846673250198,-0.4319643974304199,4.913395404815674
1687502535957378600,11.488378662109374,0.2354232668876648,0.07936213910579681,5.0518798828125
1687502535967433200,11.49843310546875,0.24394537508487701,0.5289034247398376,5.063597679138184
1687502535977488000,11.50848779296875,0.19920429587364197,0.5097286701202393,4.920852184295654
1687502535987542500,11.51854248046875,0.14700637757778168,0.16351796686649323,4.659862518310547
1687502535997597400,11.528597412109375,0.16192007064819336,-0.17310534417629242,4.325369834899902
1687502536007652000,11.538652099609376,0.24607589840888977,-0.3850927948951721,3.98555064201355
1687502536017706800,11.548706787109374,0.3632549047470093,-0.46818336844444275,3.7032558917999268
1687502536027761700,11.55876171875,0.5091960430145264,-0.3020022511482239,3.528552770614624
1687502536037816300,11.56881640625,0.6881603002548218,-0.002663159044459462,3.4454619884490967
1687502536047871000,11.57887109375,0.8607330322265625,0.21252009272575378,3.4124388694763184
1687502536057926000,11.58892578125,1.004543662071228,0.2018674612045288,3.370893716812134
1687502536067980500,11.59898046875,1.1174615621566772,-0.0846884623169899,3.285672426223755
1687502536078035200,11.60903515625,1.1952258348464966,-0.49161916971206665,3.120556592941284
1687502536088090000,11.619090087890624,1.222922682762146,-0.787762463092804,2.874480724334717
1687502536098144800,11.629144775390625,1.1579415798187256,-0.887897253036499,2.5570321083068848
1687502536108199400,11.639199462890625,1.0034784078598022,-0.8133288025856018,2.1916468143463135
1687502536118254300,11.64925439453125,0.7936214208602905,-0.5768402814865112,1.809217095375061
1687502536128309000,11.65930908203125,0.5496760606765747,-0.287088543176651,1.4715285301208496
1687502536138363600,11.66936376953125,0.2972085475921631,-0.037816859781742096,1.189233660697937
1687502536148418600,11.67941845703125,0.066046342253685,0.07936213910579681,0.9548757076263428
1687502536158473200,11.68947314453125,-0.11611373722553253,0.059122130274772644,0.7546061277389526
1687502536168528000,11.69952783203125,-0.22796641290187836,-0.042077913880348206,0.5937513113021851
1687502536178582800,11.709582763671875,-0.28442537784576416,-0.11451584100723267,0.4840291738510132
1687502536188637400,11.719637451171875,-0.32170963287353516,-0.1368863731622696,0.43502703309059143
1687502536198692000,11.729692138671876,-0.33662331104278564,-0.05699160322546959,0.4190480709075928
1687502536208747000,11.7397470703125,-0.3344927728176117,0.05592634156346321,0.417982816696167
1687502536218801700,11.7498017578125,-0.31212225556373596,0.08788424730300903,0.4265049397945404
1687502536228856300,11.759856201171875,-0.2588590681552887,0.08149266988039017,0.4211786091327667
1687502536238911200,11.7699111328125,-0.1970737725496292,0.10279794037342072,0.39667755365371704
1687502536248966000,11.7799658203125,-0.18109482526779175,0.27537065744400024,0.3902859687805176
1687502536259020500,11.7900205078125,-0.15765902400016785,0.42024651169776917,0.43928807973861694
1687502536269075500,11.800075439453124,-0.034088436514139175,0.3339601457118988,0.41159123182296753
1687502536279130000,11.810130126953124,0.12144005298614502,0.23169484734535217,0.3199785649776459
1687502536289184800,11.820184814453125,0.22370536625385284,0.10492847114801407,0.19960378110408783
1687502536299239700,11.83023974609375,0.28549066185951233,0.00798947736620903,0.07496792823076248
1687502536309294300,11.84029443359375,0.3238401412963867,-0.006924213841557503,-0.04008054360747337
1687502536319349000,11.850348876953126,0.3430148959159851,-0.018642114475369453,-0.14021532237529755
1687502536329404000,11.86040380859375,0.36964648962020874,-0.046338967978954315,-0.23821958899497986
1687502536339458600,11.87045849609375,0.3994738757610321,-0.08255793154239655,-0.3404848873615265
1687502536349513200,11.88051318359375,0.422909677028656,-0.12410321086645126,-0.44061967730522156
1687502536359568000,11.89056787109375,0.4239749312400818,-0.1784316599369049,-0.5130575895309448
1687502536369622800,11.900622802734375,0.38242965936660767,-0.19973693788051605,-0.5407544374465942
1687502536379677400,11.910677490234375,0.3110569715499878,-0.17097482085227966,-0.5226449966430664
1687502536389732000,11.920732177734376,0.22796641290187836,-0.1272990107536316,-0.46512073278427124
1687502536399787000,11.930787109375,0.15126743912696838,-0.12303794920444489,-0.3724428117275238
1687502536409841700,11.940841552734375,0.10972215235233307,-0.15180006623268127,-0.2659164369106293
1687502536419896300,11.950896240234375,0.122505322098732,-0.15393058955669403,-0.1519332230091095
1687502536429951200,11.960951171875,0.14274533092975616,-0.1177116334438324,-0.023036325350403786
1687502536440006000,11.971005859375,0.13209268450737,-0.1272990107536316,0.11118689179420471
1687502536450060500,11.981060546875,0.08522108942270279,-0.1454084813594818,0.21238693594932556
1687502536460115500,11.991115478515624,0.03621896356344223,-0.12090742588043213,0.26032379269599915
1687502536470170000,12.001170166015624,-0.008522109128534794,-0.09960214793682098,0.2677806615829468
1687502536480224800,12.011224853515625,-0.06285055726766586,-0.11238531768321991,0.24434484541416168
1687502536490279700,12.02127978515625,-0.10972215235233307,-0.13475584983825684,0.21132168173789978
1687502536500334300,12.031334228515625,-0.11717899888753891,-0.15712638199329376,0.1964079886674881
1687502536510389000,12.041388916015626,-0.1033305749297142,-0.16138744354248047,0.1910816729068756
1687502536520444000,12.05144384765625,-0.09054741263389587,-0.15606112778186798,0.2006690353155136
1687502536530498600,12.06149853515625,-0.09267793595790863,-0.15712638199329376,0.20173430442810059
1687502536540553200,12.07155322265625,-0.10439583659172058,-0.15180006623268127,0.1772332340478897
1687502536550608100,12.081608154296875,-0.0990695208311081,-0.13901691138744354,0.14314480125904083
1687502536560662800,12.091662841796875,-0.07456845790147781,-0.13049480319023132,0.11012163013219833
1687502536570717400,12.101717529296875,-0.03621896356344223,-0.13901691138744354,0.06964161247015
1687502536580772400,12.1117724609375,0.01597895473241806,-0.13795164227485657,0.007856319658458233
1687502536590827000,12.121826904296874,0.06711161136627197,-0.08255793154239655,-0.0858868807554245
1687502536600881700,12.131881591796875,0.08309056609869003,0.06657897680997849,-0.2563290596008301
1687502536610936600,12.1419365234375,-0.03728422895073891,0.31265488266944885,-0.6195839643478394
1687502536620991200,12.1519912109375,-0.3195790946483612,0.5747097134590149,-1.2544810771942139
1687502536631046000,12.1620458984375,-0.7605982422828674,0.5928192138671875,-2.1098878383636475
1687502536641100800,12.172100830078126,-1.4157353639602661,0.332894891500473,-3.437206268310547
1687502536651155500,12.182155517578124,-2.2509021759033203,0.39361491799354553,-5.668933391571045
1687502536661210000,12.192210205078124,-3.274620532989502,0.976314127445221,-8.736892700195312
1687502536671265000,12.20226513671875,-4.392082214355469,1.7550218105316162,-12.177694320678711
1687502536681319700,12.212319580078125,-5.431779384613037,2.47514009475708,-15.222217559814453
1687502536691374300,12.222374267578125,-6.271206855773926,3.1142983436584473,-17.63184356689453
1687502536701429200,12.23242919921875,-6.841123104095459,3.359308958053589,-19.66436767578125
1687502536711484000,12.24248388671875,-6.2786641120910645,2.0564913749694824,-21.483837127685547
1687502536721538600,12.25253857421875,-3.319361448287964,-1.9659440517425537,-20.53681755065918
1687502536731593500,12.262593505859375,1.058872103691101,-5.706084728240967,-12.625104904174805
1687502536741648100,12.272648193359375,3.6133742332458496,-10.784196853637695,-1.2267842292785645
1687502536751702800,12.282702880859375,4.921517848968506,-12.237215995788574,7.934483051300049
1687502536761757700,12.2927578125,4.876777172088623,-8.451269149780273,12.062379837036133
1687502536771812400,12.302812255859376,3.4908690452575684,-4.164648056030273,13.093554496765137
1687502536781867000,12.312866943359374,2.0016303062438965,-0.7387603521347046,12.846413612365723
1687502536791922000,12.322921875,0.7989477515220642,1.5227943658828735,12.038944244384766
1687502536801976600,12.3329765625,-0.021305272355675697,2.688192844390869,11.119621276855469
1687502536812031200,12.34303125,-0.40266966819763184,2.9193549156188965,10.085249900817871
1687502536822088000,12.353087890625,-0.44528019428253174,2.380331516265869,8.912395477294922
1687502536832141600,12.3631416015625,-0.2812296152114868,1.4130722284317017,7.569097518920898
1687502536842195500,12.373195556640624,-0.008522109128534794,0.18482324481010437,6.157623291015625
1687502536852249000,12.3832490234375,0.26525065302848816,-0.8058719635009766,4.92191743850708
1687502536862303000,12.393302978515624,0.4996086359024048,-1.089232087135315,4.099534034729004
1687502536872357000,12.403357177734375,0.5869602560997009,-0.94648677110672,3.730952739715576
1687502536882411300,12.413411376953125,0.46338969469070435,-0.8101329803466797,3.661710500717163
1687502536892465700,12.423465576171875,0.18961693346500397,-0.8474172353744507,3.656384229660034
1687502536902520000,12.43352001953125,-0.13422322273254395,-0.9454214572906494,3.504051685333252
1687502536912574700,12.44357470703125,-0.4367581009864807,-0.8815056681632996,3.1684935092926025
1687502536922629600,12.453629638671876,-0.6359623670578003,-0.5640571117401123,2.7061691284179688
1687502536932684500,12.4636845703125,-0.7424887418746948,-0.1880190372467041,2.223604679107666
1687502536942739500,12.473739501953125,-0.8117309212684631,0.050600022077560425,1.7943034172058105
1687502536952795000,12.483794921875,-0.8362319469451904,0.1784316599369049,1.3926990032196045
1687502536962850000,12.49385009765625,-0.7946866750717163,0.2551306486129761,1.00068199634552
1687502536972905500,12.503905517578126,-0.6966823935508728,0.17097482085227966,0.6587324142456055
1687502536982961000,12.5139609375,-0.565654993057251,-0.02396843209862709,0.37643754482269287
1687502536993016300,12.524016357421875,-0.43143177032470703,-0.16671375930309296,0.13888375461101532
1687502537003071700,12.53407177734375,-0.34088435769081116,-0.2498043179512024,-0.06564687192440033
1687502537013127000,12.544126953125,-0.2908169627189636,-0.34993910789489746,-0.23502379655838013
1687502537023181600,12.554181640625,-0.245010644197464,-0.3914843797683716,-0.3500722646713257
1687502537033236200,12.564236328125,-0.19494324922561646,-0.36059173941612244,-0.3873564898967743
1687502537043291100,12.574291015625,-0.1736379712820053,-0.267913818359375,-0.34155014157295227
1687502537053345800,12.584345703125,-0.1981390416622162,-0.21891167759895325,-0.23076273500919342
1687502537063400400,12.594400390625,-0.21518325805664062,-0.26471802592277527,-0.08695214241743088
1687502537073455000,12.604455078125,-0.1502021700143814,-0.27110961079597473,0.06325002759695053
1687502537083509800,12.614509765625,-0.04793686419725418,-0.21784640848636627,0.21771325170993805
1687502537093564400,12.624564453125,0.02450106292963028,-0.10599373281002045,0.3657849133014679
1687502537103619000,12.634619140625,0.0703074038028717,0.042077913880348206,0.4691154658794403
1687502537113673700,12.644673828125,0.10652636736631393,0.11877689510583878,0.49468180537223816
